Trajectories
100
,,Subj:LASI,,,Subj:RASI,,,Subj:LPSI,,,Subj:RPSI,,,Subj:LTHI,,,Subj:LKNE,,,Subj:LTIB,,,Subj:LANK,,,Subj:LHEE,,,Subj:LTOE,,,Subj:RTHI,,,Subj:RKNE,,,Subj:RTIB,,,Subj:RANK,,,Subj:RHEE,,,Subj:RTOE,,,
Frame,Sub Frame,X,Y,Z,X,Y,Z,X,Y,Z,X,Y,Z,X,Y,Z,X,Y,Z,X,Y,Z,X,Y,Z,X,Y,Z,X,Y,Z,X,Y,Z,X,Y,Z,X,Y,Z,X,Y,Z,X,Y,Z,X,Y,Z
,,mm,mm,mm,mm,mm,mm,mm,mm,mm,mm,mm,mm,mm,mm,mm,mm,mm,mm,mm,mm,mm,mm,mm,mm,mm,mm,mm,mm,mm,mm,mm,mm,mm,mm,mm,mm,mm,mm,mm,mm,mm,mm,mm,mm,mm,mm,mm,mm
1,0,108.853,427.918,1155.68,95.5709,153.843,1141.49,-106.909,343.535,1205.59,-105.114,238.859,1196.55,41.0417,493.906,869.959,25.9137,465.401,669.034,22.9161,461.332,465.313,27.9503,400.32,240.012,-27.8965,348.071,191.683,187.922,404.092,195.661,36.0718,106.645,844.311,10.1031,133.944,650.755,-93.4598,131.914,466.098,-206.605,170.844,252.703,-278.833,223.743,250.007,-76.6625,176.157,190.787
2,0,108.592,428.927,1154.94,93.8675,154.859,1140.89,-107.828,345.253,1204.91,-106.427,240.732,1195.24,39.9854,494.975,869.691,23.7988,466.68,668.711,20.3672,461.805,464.953,25.2065,400.49,239.62,-31.0446,347.969,191.613,184.811,403.902,195.591,42.0266,106.593,844.512,21.4564,132.611,650.772,-86.4261,130.961,468.681,-205.645,170.584,259.649,-276.503,223.54,261.239,-82.4047,176.463,190.054
3,0,108.273,429.897,1154.24,92.2079,155.836,1140.37,-108.749,346.895,1204.27,-107.719,242.521,1194.03,38.8966,495.998,869.425,21.6846,467.898,668.402,17.8041,462.266,464.61,22.4341,400.672,239.24,-34.1987,347.887,191.539,181.695,403.727,195.524,47.78,106.538,844.814,32.5412,131.389,651.01,-79.353,130.081,471.433,-204.328,170.363,266.576,-273.885,223.397,272.196,-87.3657,176.713,189.787
4,0,107.899,430.831,1153.6,90.592,156.773,1139.92,-109.673,348.462,1203.68,-108.99,244.225,1192.91,37.7754,496.974,869.162,19.5713,469.056,668.107,15.2269,462.717,464.284,19.633,400.867,238.873,-37.3586,347.825,191.46,178.573,403.567,195.46,53.3318,106.479,845.217,43.357,130.277,651.469,-72.2408,129.276,474.351,-202.656,170.181,273.481,-270.981,223.314,282.876,-91.5435,176.906,189.985
5,0,107.468,431.726,1153.01,89.02,157.67,1139.55,-110.598,349.954,1203.13,-110.238,245.845,1191.88,36.622,497.904,868.902,17.4591,470.152,667.826,12.6361,463.155,463.976,16.8032,401.072,238.519,-40.5242,347.781,191.378,175.446,403.422,195.398,58.6812,106.416,845.72,53.9025,129.274,652.149,-65.0908,128.545,477.435,-200.627,170.039,280.357,-267.792,223.292,293.269,-94.9332,177.042,190.645
6,0,106.982,432.585,1152.46,87.492,158.527,1139.24,-111.525,351.371,1202.63,-111.464,247.379,1190.94,35.4366,498.787,868.644,15.3484,471.186,667.56,10.0323,463.581,463.685,13.9446,401.288,238.179,-43.6952,347.755,191.291,172.313,403.291,195.339,63.827,106.351,846.323,64.1754,128.382,653.049,-57.9052,127.889,480.677,-198.241,169.935,287.192,-264.322,223.328,303.355,-97.5247,177.122,191.762
7,0,106.439,433.406,1151.96,86.0084,159.345,1139.01,-112.454,352.711,1202.17,-112.669,248.829,1190.09,34.2196,499.623,868.389,13.2401,472.159,667.307,7.41688,463.994,463.411,11.0572,401.513,237.852,-46.8708,347.746,191.2,169.174,403.174,195.283,68.7667,106.283,847.025,74.1713,127.599,654.165,-50.6877,127.307,484.067,-195.499,169.868,293.964,-260.575,223.422,313.102,-99.3014,177.144,193.323
8,0,105.841,434.19,1151.51,84.5699,160.123,1138.85,-113.384,353.977,1201.75,-113.85,250.194,1189.34,32.9715,500.412,868.138,11.1353,473.069,667.069,4.7918,464.391,463.155,8.14119,401.743,237.54,-50.0501,347.753,191.105,166.029,403.069,195.229,73.4971,106.212,847.824,83.8835,126.925,655.493,-43.4434,126.801,487.59,-192.396,169.838,300.637,-256.559,223.572,322.461,-100.24,177.107,195.311
9,0,105.188,434.937,1151.11,83.1773,160.862,1138.77,-114.315,355.166,1201.39,-115.008,251.474,1188.67,31.6932,501.152,867.89,9.03577,473.914,666.845,2.15967,464.77,462.916,5.19706,401.977,237.245,-53.2317,347.772,191.007,162.88,402.976,195.177,78.0138,106.138,848.719,93.3028,126.358,657.025,-36.1791,126.37,491.222,-188.931,169.841,307.166,-252.28,223.774,331.368,-100.309,177.012,197.7
10,0,104.482,435.648,1150.76,81.8317,161.563,1138.75,-115.246,356.279,1201.06,-116.142,252.668,1188.1,30.3856,501.843,867.646,6.94343,474.695,666.634,-0.476167,465.127,462.695,2.2256,402.209,236.966,-56.4138,347.801,190.905,159.725,402.891,195.127,82.3114,106.063,849.705,102.417,125.898,658.754,-28.9027,126.014,494.935,-185.097,169.875,313.492,-247.746,224.023,339.742,-99.4737,176.858,200.455
11,0,103.723,436.323,1150.46,80.5348,162.225,1138.81,-116.176,357.314,1200.79,-117.25,253.777,1187.61,29.05,502.484,867.405,4.86062,475.408,666.438,-3.11178,465.46,462.491,-0.771869,402.436,236.707,-59.5944,347.837,190.8,156.565,402.814,195.078,86.3839,105.988,850.781,111.212,125.542,660.668,-21.623,125.733,498.691,-180.884,169.936,319.543,-242.96,224.312,347.49,-97.6921,176.645,203.529
12,0,102.914,436.962,1150.2,79.2885,162.851,1138.93,-117.103,358.273,1200.55,-118.332,254.799,1187.22,27.6876,503.073,867.17,2.78993,476.052,666.254,-5.74274,465.763,462.305,-3.79347,402.651,236.469,-62.7713,347.877,190.692,153.401,402.741,195.031,90.2248,105.912,851.94,119.67,125.289,662.752,-14.3492,125.525,502.448,-176.282,170.018,325.239,-237.923,224.633,354.507,-94.9227,176.375,206.869
13,0,102.057,437.567,1149.99,78.0952,163.44,1139.12,-118.026,359.153,1200.37,-119.384,255.735,1186.91,26.3,503.608,866.939,0.734024,476.625,666.085,-8.36434,466.032,462.137,-6.83679,402.85,236.252,-65.9421,347.915,190.582,150.234,402.67,194.986,93.8276,105.838,853.178,127.772,125.134,664.988,-7.09014,125.39,506.156,-171.272,170.114,330.49,-232.629,224.975,360.685,-91.1246,176.048,210.409
14,0,101.154,438.137,1149.83,76.9576,163.993,1139.38,-118.942,359.954,1200.22,-120.405,256.583,1186.69,24.8887,504.087,866.714,-1.30446,477.125,665.928,-10.9718,466.262,461.987,-9.89889,403.028,236.058,-69.1046,347.948,190.471,147.065,402.599,194.942,97.1866,105.766,854.488,135.496,125.075,667.357,0.145876,125.323,509.759,-165.834,170.217,335.205,-227.066,225.326,365.914,-86.2612,175.67,214.076
15,0,100.209,438.674,1149.71,75.879,164.512,1139.7,-119.85,360.674,1200.12,-121.392,257.343,1186.56,23.4553,504.509,866.495,-3.32311,477.551,665.783,-13.5606,466.448,461.854,-12.9765,403.179,235.888,-72.2572,347.974,190.358,143.894,402.524,194.9,100.297,105.698,855.863,142.819,125.107,669.836,7.35171,125.321,513.202,-159.943,170.319,339.29,-221.213,225.671,370.091,-80.3031,175.245,217.793
16,0,99.2275,439.178,1149.63,74.8628,164.996,1140.09,-120.746,361.315,1200.07,-122.343,258.016,1186.52,22.0013,504.87,866.281,-5.31992,477.899,665.651,-16.1267,466.585,461.739,-16.0662,403.299,235.741,-75.3984,347.987,190.244,140.723,402.443,194.86,103.154,105.634,857.295,149.719,125.226,672.4,14.5216,125.38,516.425,-153.57,170.41,342.658,-215.041,225.995,373.122,-73.2309,174.779,221.476
17,0,98.2129,439.65,1149.59,73.9132,165.448,1140.53,-121.627,361.873,1200.05,-123.253,258.599,1186.55,20.5284,505.17,866.074,-7.2934,478.17,665.53,-18.6667,466.67,461.642,-19.1646,403.384,235.619,-78.5277,347.985,190.131,137.552,402.354,194.823,105.759,105.576,858.775,156.173,125.425,675.022,21.6511,125.491,519.37,-146.683,170.48,345.227,-208.513,226.281,374.933,-65.0368,174.281,225.041
18,0,97.1711,440.09,1149.59,73.0342,165.868,1141.03,-122.489,362.348,1200.08,-124.119,259.093,1186.67,19.0381,505.406,865.872,-9.24276,478.361,665.421,-21.1783,466.697,461.561,-22.2688,403.431,235.521,-81.6457,347.967,190.017,134.381,402.256,194.788,108.11,105.524,860.294,162.158,125.698,677.671,28.737,125.648,521.982,-139.249,170.52,346.932,-201.583,226.512,375.469,-55.7267,173.759,228.409
19,0,96.1086,440.499,1149.62,72.2306,166.257,1141.57,-123.329,362.74,1200.14,-124.938,259.497,1186.86,17.5318,505.576,865.676,-11.168,478.474,665.322,-23.6603,466.665,461.497,-25.3762,403.439,235.446,-84.7536,347.928,189.905,131.213,402.146,194.758,110.211,105.478,861.841,167.655,126.04,680.319,35.7771,125.843,524.21,-131.235,170.518,347.722,-194.203,226.671,374.699,-45.3209,173.224,231.504
20,0,95.0322,440.876,1149.68,71.507,166.615,1142.17,-124.141,363.047,1200.24,-125.704,259.81,1187.12,16.011,505.68,865.485,-13.07,478.507,665.233,-26.1129,466.571,461.448,-28.4853,403.406,235.394,-87.8541,347.87,189.794,128.045,402.025,194.731,112.069,105.44,863.405,172.645,126.442,682.935,42.769,126.064,526.012,-122.609,170.467,347.563,-186.32,226.744,372.621,-33.8542,172.687,234.261
21,0,93.9497,441.223,1149.77,70.8683,166.943,1142.8,-124.921,363.269,1200.38,-126.414,260.033,1187.44,14.4771,505.716,865.299,-14.9503,478.461,665.154,-28.5376,466.415,461.414,-31.5953,403.332,235.364,-90.9506,347.79,189.685,124.879,401.893,194.709,113.693,105.408,864.976,177.113,126.897,685.487,49.7099,126.303,527.353,-113.345,170.359,346.447,-177.882,226.718,369.258,-21.3762,172.161,236.625
22,0,92.8691,441.539,1149.87,70.3195,167.24,1143.47,-125.664,363.406,1200.54,-127.062,260.166,1187.83,12.9317,505.684,865.115,-16.8117,478.338,665.082,-30.9372,466.197,461.394,-34.7064,403.219,235.353,-94.0475,347.689,189.579,121.713,401.749,194.69,115.093,105.381,866.542,181.048,127.398,687.946,56.5954,126.549,528.209,-103.423,170.188,344.384,-168.84,226.582,364.663,-7.9503,171.656,238.557
23,0,91.7992,441.823,1149.99,69.8654,167.507,1144.16,-126.365,363.456,1200.73,-127.644,260.208,1188.27,11.3766,505.585,864.934,-18.6573,478.141,665.018,-33.3158,465.918,461.387,-37.8197,403.067,235.362,-97.1498,347.566,189.477,118.546,401.595,194.675,116.284,105.358,868.089,184.443,127.935,690.283,63.4184,126.791,528.567,-92.8343,169.95,341.411,-159.156,226.33,358.915,6.3467,171.184,240.034
24,0,90.7491,442.075,1150.11,69.5109,167.744,1144.88,-127.018,363.42,1200.94,-128.156,260.159,1188.75,9.81364,505.419,864.754,-20.4911,477.87,664.962,-35.6787,465.582,461.391,-40.9371,402.88,235.388,-100.263,347.424,189.378,115.376,401.432,194.663,117.282,105.337,869.604,187.294,128.501,692.469,70.1683,127.022,528.426,-81.5805,169.643,337.582,-148.802,225.96,352.116,21.4256,170.757,241.048
25,0,89.7284,442.295,1150.24,69.2605,167.949,1145.61,-127.618,363.298,1201.17,-128.591,260.021,1189.27,8.24521,505.188,864.573,-22.3174,477.53,664.911,-38.0318,465.192,461.404,-44.061,402.661,235.429,-103.392,347.263,189.284,112.203,401.262,194.652,118.103,105.316,871.076,189.604,129.088,694.48,76.8304,127.231,527.794,-69.6795,169.271,332.974,-137.765,225.477,344.392,37.1858,170.382,241.607
26,0,88.7465,442.48,1150.36,69.1186,168.122,1146.34,-128.158,363.09,1201.41,-128.947,259.794,1189.83,6.6741,504.894,864.389,-24.1408,477.124,664.865,-40.3817,464.752,461.427,-47.1941,402.414,235.483,-106.542,347.084,189.195,109.023,401.088,194.643,118.768,105.292,872.49,191.377,129.687,696.294,83.3846,127.413,526.695,-57.166,168.838,327.682,-126.053,224.887,335.882,53.5155,170.067,241.737
27,0,87.8133,442.63,1150.46,69.089,168.262,1147.07,-128.634,362.797,1201.66,-129.217,259.479,1190.4,5.10366,504.539,864.202,-25.9659,476.656,664.823,-42.7352,464.268,461.456,-50.3394,402.141,235.549,-109.717,346.89,189.112,105.835,400.912,194.632,119.295,105.263,873.833,192.627,130.291,697.891,89.8059,127.564,525.158,-44.0933,168.353,321.813,-113.693,224.206,326.741,70.2931,169.819,241.475
28,0,86.9382,442.743,1150.54,69.1752,168.366,1147.8,-129.04,362.42,1201.91,-129.399,259.076,1191,3.53788,504.127,864.008,-27.797,476.129,664.784,-45.0992,463.745,461.491,-53.4995,401.848,235.625,-112.922,346.682,189.035,102.637,400.736,194.618,119.703,105.225,875.09,193.368,130.892,699.257,96.0636,127.679,523.224,-30.5349,167.826,315.485,-100.74,223.453,317.131,87.3873,169.639,240.867
29,0,86.1306,442.818,1150.6,69.3801,168.434,1148.5,-129.371,361.96,1202.16,-129.488,258.589,1191.59,1.98148,503.66,863.807,-29.6379,475.548,664.748,-47.4797,463.19,461.53,-56.6764,401.538,235.707,-116.158,346.463,188.964,99.4268,400.564,194.601,120.013,105.176,876.25,193.623,131.482,700.379,102.122,127.759,520.941,-16.5841,167.273,308.822,-87.2709,222.651,307.218,104.658,169.529,239.97
30,0,85.3994,442.852,1150.62,69.7059,168.462,1149.19,-129.621,361.418,1202.4,-129.48,258.017,1192.19,0.439918,503.143,863.597,-31.4915,474.915,664.713,-49.8822,462.608,461.573,-59.8719,401.215,235.794,-119.427,346.234,188.9,96.203,400.398,194.577,120.241,105.113,877.298,193.415,132.056,701.25,107.942,127.806,518.361,-2.35397,166.709,301.95,-73.3872,221.826,297.166,121.958,169.487,238.842
31,0,84.753,442.842,1150.6,70.1542,168.45,1149.84,-129.786,360.798,1202.62,-129.373,257.365,1192.77,-1.08056,502.579,863.375,-33.3599,474.235,664.677,-52.3111,462.007,461.617,-63.087,400.883,235.883,-122.729,345.997,188.843,92.964,400.24,194.545,120.405,105.035,878.223,192.775,132.606,701.866,113.481,127.822,515.541,12.0245,166.153,294.993,-59.2149,221.008,287.135,139.132,169.509,237.54
32,0,84.1989,442.788,1150.53,70.7259,168.395,1150.45,-129.862,360.101,1202.83,-129.164,256.633,1193.34,-2.57298,501.971,863.142,-35.2436,473.511,664.641,-54.7691,461.39,461.662,-66.3218,400.545,235.974,-126.064,345.756,188.792,89.7085,400.092,194.504,120.521,104.94,879.014,191.735,133.128,702.229,118.693,127.814,512.538,26.4047,165.625,288.069,-44.9007,220.228,277.274,156.023,169.59,236.12
33,0,83.744,442.686,1150.41,71.4209,168.293,1151.02,-129.846,359.329,1203.01,-128.851,255.825,1193.88,-4.02965,501.322,862.894,-37.1419,472.744,664.603,-57.2576,460.764,461.708,-69.576,400.203,236.063,-129.429,345.511,188.747,86.4353,399.956,194.453,120.601,104.826,879.662,190.333,133.616,702.344,123.535,127.787,509.41,40.6283,165.143,281.284,-30.6086,219.515,267.722,172.468,169.723,234.629
34,0,83.3939,442.534,1150.23,72.2385,168.144,1151.55,-129.734,358.486,1203.16,-128.434,254.943,1194.38,-5.4423,500.637,862.632,-39.0522,471.937,664.562,-59.7756,460.132,461.752,-72.8486,399.862,236.149,-132.821,345.265,188.707,83.1434,399.832,194.39,120.658,104.693,880.159,188.607,134.066,702.219,127.963,127.75,506.212,54.529,164.725,274.735,-16.5156,218.896,258.599,188.308,169.899,233.108
35,0,83.1533,442.329,1150,73.177,167.943,1152.02,-129.524,357.574,1203.29,-127.912,253.99,1194.85,-6.80218,499.917,862.354,-40.9703,471.091,664.516,-62.3206,459.496,461.795,-76.1383,399.521,236.232,-136.238,345.02,188.672,79.8319,399.722,194.316,120.7,104.54,880.5,186.598,134.474,701.866,131.938,127.71,502.996,67.9379,164.388,268.501,-2.80562,218.394,250.007,203.386,170.111,231.584
36,0,83.0257,442.07,1149.71,74.2338,167.69,1152.43,-129.216,356.598,1203.38,-127.285,252.97,1195.28,-8.10019,499.165,862.059,-42.8899,470.207,664.465,-64.8877,458.86,461.835,-79.4432,399.183,236.311,-139.677,344.778,188.639,76.5003,399.625,194.23,120.734,104.367,880.682,184.349,134.838,701.303,135.427,127.676,499.807,80.689,164.146,262.648,10.3364,218.028,242.031,217.554,170.352,230.076
37,0,83.013,441.755,1149.35,75.4057,167.382,1152.79,-128.807,355.56,1203.43,-126.555,251.886,1195.66,-9.32708,498.382,861.748,-44.8028,469.286,664.407,-67.4699,458.223,461.872,-82.7615,398.847,236.385,-143.132,344.54,188.607,73.1478,399.542,194.131,120.767,104.174,880.705,181.903,135.153,700.547,138.404,127.653,496.688,92.6251,164.008,257.224,22.7313,217.809,234.733,230.676,170.614,228.591
38,0,83.1161,441.38,1148.94,76.6883,167.017,1153.09,-128.3,354.464,1203.44,-125.723,250.741,1195.99,-10.4736,497.57,861.42,-46.6988,468.326,664.34,-70.0581,457.585,461.905,-86.091,398.516,236.455,-146.602,344.307,188.575,69.774,399.47,194.021,120.801,103.962,880.573,179.305,135.419,699.62,140.851,127.648,493.674,103.603,163.981,252.261,34.2124,217.741,228.155,242.635,170.892,227.129
39,0,83.3343,440.946,1148.47,78.0766,166.593,1153.33,-127.694,353.314,1203.42,-124.792,249.539,1196.27,-11.5308,496.728,861.074,-48.5657,467.328,664.264,-72.6412,456.945,461.932,-89.4295,398.187,236.522,-150.082,344.082,188.54,66.3787,399.409,193.899,120.84,103.731,880.291,176.597,135.632,698.544,142.761,127.665,490.792,113.499,164.066,247.775,44.6318,217.82,222.319,253.331,171.183,225.681
40,0,83.6653,440.45,1147.95,79.5648,166.11,1153.51,-126.992,352.114,1203.35,-123.765,248.283,1196.5,-12.4898,495.858,860.712,-50.3894,466.291,664.175,-75.2059,456.299,461.954,-92.7746,397.86,236.585,-153.568,343.864,188.5,62.9621,399.357,193.767,120.885,103.479,879.867,173.822,135.792,697.345,144.136,127.706,488.065,122.215,164.259,243.771,53.8667,218.036,217.227,262.692,171.482,224.234
41,0,84.1056,439.891,1147.39,81.1463,165.566,1153.63,-126.198,350.867,1203.25,-122.648,246.977,1196.68,-13.3426,494.958,860.333,-52.1539,465.213,664.074,-77.7376,455.645,461.967,-96.1237,397.533,236.647,-157.058,343.655,188.453,59.5248,399.312,193.624,120.935,103.206,879.314,171.018,135.896,696.048,144.991,127.772,485.509,129.678,164.553,240.238,61.8238,218.371,212.864,270.671,171.79,222.772
42,0,84.6502,439.27,1146.78,82.8139,164.96,1153.7,-125.315,349.576,1203.11,-121.446,245.624,1196.8,-14.0816,494.027,859.938,-53.8413,464.096,663.957,-80.2199,454.977,461.971,-99.474,397.206,236.709,-160.548,343.454,188.397,56.0681,399.273,193.473,120.992,102.911,878.646,168.225,135.945,694.678,145.347,127.859,483.136,135.848,164.935,237.157,68.443,218.803,209.199,277.25,172.105,221.283
43,0,85.2928,438.585,1146.14,84.5598,164.294,1153.72,-124.349,348.245,1202.95,-120.163,244.227,1196.88,-14.6999,493.065,859.529,-55.4324,462.938,663.824,-82.635,454.292,461.964,-102.822,396.876,236.771,-164.034,343.261,188.33,52.5938,399.238,193.313,121.054,102.592,877.88,165.476,135.938,693.259,145.239,127.964,480.95,140.715,165.391,234.501,73.6995,219.305,206.189,282.443,172.427,219.756
44,0,86.0257,437.837,1145.48,86.3756,163.567,1153.69,-123.305,346.877,1202.75,-118.807,242.79,1196.92,-15.1914,492.07,859.107,-56.9062,461.74,663.672,-84.9643,453.585,461.945,-106.165,396.54,236.836,-167.514,343.075,188.25,49.105,399.203,193.148,121.122,102.245,877.032,162.801,135.873,691.817,144.708,128.081,478.954,144.3,165.901,232.239,77.6041,219.847,203.782,286.291,172.754,218.186
45,0,86.8403,437.027,1144.8,88.2526,162.781,1153.61,-122.191,345.475,1202.52,-117.385,241.314,1196.91,-15.5509,491.041,858.674,-58.2406,460.505,663.501,-87.1883,452.85,461.911,-109.498,396.197,236.904,-170.983,342.893,188.157,45.6055,399.169,192.979,121.194,101.868,876.124,160.228,135.751,690.373,143.8,128.201,477.145,146.655,166.445,230.332,80.2016,220.4,201.916,288.862,173.086,216.576
46,0,87.7265,436.155,1144.12,90.1816,161.938,1153.51,-121.013,344.04,1202.28,-115.905,239.803,1196.87,-15.7736,489.978,858.231,-59.4124,459.234,663.307,-89.2871,452.086,461.861,-112.816,395.843,236.978,-174.44,342.714,188.051,42.1,399.132,192.807,121.272,101.458,875.175,157.779,135.57,688.95,142.568,128.316,475.517,147.857,167.003,228.744,81.5684,220.936,200.525,290.248,173.419,214.934
47,0,88.6736,435.225,1143.45,92.1533,161.038,1153.36,-119.782,342.575,1202.02,-114.374,238.258,1196.81,-15.8554,488.878,857.782,-60.3975,457.933,663.091,-91.2407,451.288,461.794,-116.115,395.478,237.059,-177.88,342.533,187.934,38.5944,399.091,192.635,121.355,101.01,874.205,155.47,135.333,687.565,141.066,128.416,474.064,148.004,167.553,227.436,81.8071,221.43,199.544,290.562,173.75,213.276
48,0,89.67,434.238,1142.8,94.158,160.086,1153.2,-118.505,341.08,1201.75,-112.802,236.681,1196.72,-15.793,487.743,857.328,-61.1712,456.607,662.851,-93.029,450.455,461.708,-119.388,395.098,237.151,-181.3,342.348,187.811,35.0953,399.046,192.466,121.444,100.522,873.234,153.314,135.037,686.234,139.348,128.489,472.775,147.215,168.076,226.371,81.0417,221.859,198.904,289.929,174.074,211.624
49,0,90.7035,433.197,1142.17,96.1861,159.084,1153.01,-117.193,339.558,1201.48,-111.196,235.074,1196.61,-15.5829,486.574,856.874,-61.7084,455.262,662.586,-94.6324,449.587,461.603,-122.63,394.702,237.258,-184.697,342.152,187.688,31.61,398.994,192.302,121.54,99.9902,872.279,151.318,134.686,684.973,137.466,128.527,471.64,145.616,168.554,225.514,79.4108,222.209,198.541,288.486,174.385,210.001
50,0,91.7614,432.105,1141.59,98.228,158.035,1152.81,-115.855,338.007,1201.2,-109.566,233.437,1196.5,-15.2222,485.372,856.423,-61.9841,453.907,662.297,-96.0319,448.685,461.479,-125.835,394.29,237.383,-188.069,341.942,187.575,28.1461,398.935,192.145,121.642,99.4122,871.357,149.484,134.278,683.79,135.469,128.52,470.646,143.343,168.973,224.831,77.0612,222.468,198.394,286.37,174.676,208.436
51,0,92.8309,430.966,1141.06,100.274,156.944,1152.6,-114.503,336.429,1200.94,-107.921,231.772,1196.38,-14.7077,484.139,855.979,-61.9734,452.554,661.984,-97.2093,447.753,461.337,-128.995,393.862,237.535,-191.413,341.712,187.484,24.7115,398.869,191.999,121.751,98.7862,870.483,147.809,133.816,682.694,133.399,128.46,469.78,140.529,169.322,224.293,74.1406,222.63,198.41,283.719,174.941,206.955
52,0,93.8989,429.784,1140.58,102.315,155.814,1152.38,-113.146,334.823,1200.68,-106.271,230.079,1196.26,-14.0362,482.881,855.546,-61.6518,451.213,661.648,-98.1472,446.798,461.18,-132.105,393.417,237.72,-194.728,341.458,187.432,21.3137,398.796,191.866,121.866,98.1114,869.667,146.285,133.301,681.69,131.293,128.34,469.029,137.305,169.594,223.872,70.7921,222.695,198.538,280.663,175.173,205.581
53,0,94.9526,428.563,1140.17,104.341,154.652,1152.17,-111.796,333.188,1200.44,-104.624,228.358,1196.15,-13.2041,481.602,855.129,-60.9959,449.898,661.292,-98.8296,445.826,461.012,-135.158,392.958,237.951,-198.012,341.175,187.441,17.9597,398.714,191.746,121.986,97.3881,868.92,144.902,132.736,680.78,129.179,128.157,468.38,133.791,169.784,223.545,67.1489,222.668,198.736,277.322,175.367,204.335
54,0,95.9794,427.309,1139.84,106.344,153.46,1151.96,-110.463,331.523,1200.22,-102.989,226.61,1196.05,-12.2074,480.309,854.734,-59.9834,448.623,660.917,-99.2414,444.847,460.837,-138.147,392.487,238.24,-201.264,340.861,187.535,14.6556,398.625,191.641,122.109,96.6178,868.246,143.643,132.122,679.964,127.079,127.908,467.818,130.095,169.892,223.29,63.3293,222.557,198.97,273.8,175.52,203.231
55,0,96.9673,426.026,1139.59,108.315,152.244,1151.75,-109.157,329.828,1200.03,-101.375,224.834,1195.97,-11.0415,479.01,854.364,-58.5937,447.404,660.528,-99.3691,443.875,460.662,-141.065,392.008,238.604,-204.481,340.513,187.746,11.4061,398.529,191.551,122.23,95.803,867.649,142.49,131.463,679.24,125.006,127.593,467.332,126.309,169.923,223.09,59.4344,222.373,199.211,270.187,175.63,202.279
56,0,97.9048,424.72,1139.43,110.246,151.01,1151.56,-107.89,328.102,1199.86,-99.7909,223.032,1195.92,-9.70157,477.714,854.028,-56.8081,446.256,660.129,-99.2004,442.921,460.495,-143.904,391.525,239.06,-207.662,340.132,188.107,8.21425,398.426,191.474,122.346,94.9473,867.13,141.421,130.762,678.603,122.966,127.213,466.908,122.509,169.882,222.929,55.5462,222.131,199.437,266.555,175.697,201.479
57,0,98.7814,423.396,1139.35,112.128,149.762,1151.38,-106.67,326.344,1199.72,-98.2444,221.203,1195.89,-8.18226,476.43,853.729,-54.6102,445.195,659.726,-98.7246,442.002,460.346,-146.655,391.046,239.629,-210.803,339.719,188.657,5.08111,398.316,191.41,122.45,94.055,866.687,140.414,130.022,678.046,120.959,126.773,466.534,118.753,169.778,222.796,51.727,221.843,199.632,262.959,175.722,200.828
58,0,99.5875,422.059,1139.37,113.955,148.505,1151.22,-105.507,324.553,1199.61,-96.7435,219.349,1195.89,-6.47808,475.171,853.473,-51.9866,444.236,659.326,-97.9323,441.133,460.227,-149.308,390.576,240.336,-213.9,339.279,189.439,2.00559,398.2,191.353,122.535,93.1314,866.314,139.444,129.248,677.564,118.98,126.278,466.2,115.083,169.621,222.678,48.0198,221.525,199.787,259.436,175.708,200.316
59,0,100.315,420.714,1139.48,115.72,147.244,1151.07,-104.409,322.73,1199.53,-95.2953,217.47,1195.91,-4.58359,473.946,853.267,-48.9267,443.395,658.935,-96.8158,440.331,460.15,-151.851,390.125,241.205,-216.943,338.819,190.498,-1.01578,398.078,191.302,122.594,92.1818,866.007,138.486,128.443,677.147,117.02,125.735,465.896,111.527,169.422,222.569,44.4504,221.189,199.895,256.01,175.662,199.929
60,0,100.955,419.368,1139.68,117.416,145.983,1150.94,-103.384,320.875,1199.49,-93.9068,215.567,1195.97,-2.49371,472.769,853.117,-45.4239,442.686,658.562,-95.3692,439.613,460.13,-154.272,389.7,242.263,-219.923,338.347,191.881,-3.98895,397.947,191.25,122.616,91.2121,865.758,137.517,127.611,676.788,115.066,125.152,465.613,108.096,169.192,222.462,41.029,220.848,199.956,252.693,175.589,199.65
61,0,101.504,418.025,1139.96,119.037,144.728,1150.82,-102.437,318.989,1199.47,-92.5842,213.644,1196.06,-0.204136,471.651,853.027,-41.4752,442.12,658.216,-93.5882,438.995,460.182,-156.554,389.311,243.537,-222.825,337.874,193.635,-6.92221,397.807,191.192,122.591,90.2278,865.559,136.512,126.757,676.476,113.105,124.537,465.344,104.792,168.942,222.354,37.7534,220.512,199.97,249.483,175.495,199.46
62,0,101.956,416.69,1140.33,120.578,143.481,1150.72,-101.576,317.074,1199.49,-91.3332,211.703,1196.18,2.28823,470.604,853.003,-37.0818,441.71,657.907,-91.4704,438.492,460.323,-158.68,388.967,245.053,-225.63,337.412,195.807,-9.82609,397.657,191.124,122.51,89.2344,865.401,135.448,125.884,676.205,111.122,123.9,465.082,101.609,168.68,222.24,34.6115,220.189,199.941,246.372,175.388,199.339
63,0,102.308,415.367,1140.78,122.035,142.247,1150.64,-100.805,315.133,1199.53,-90.1589,209.746,1196.33,4.9848,469.639,853.05,-32.2495,441.461,657.645,-89.0157,438.118,460.569,-160.629,388.678,246.836,-228.315,336.974,198.441,-12.7129,397.493,191.04,122.362,88.2365,865.276,134.305,124.996,675.965,109.103,123.247,464.824,98.5317,168.416,222.12,31.5845,219.884,199.876,243.348,175.272,199.267
64,0,102.559,414.061,1141.3,123.402,141.029,1150.57,-100.126,313.17,1199.6,-89.066,207.779,1196.51,7.88482,468.766,853.172,-26.9888,441.381,657.441,-86.2258,437.883,460.937,-162.379,388.452,248.91,-230.853,336.572,201.575,-15.5961,397.312,190.937,122.136,87.2386,865.175,133.064,124.097,675.749,107.034,122.589,464.565,95.5438,168.156,221.992,28.6495,219.601,199.78,240.394,175.154,199.227
65,0,102.708,412.775,1141.88,124.677,139.829,1150.51,-99.5433,311.188,1199.69,-88.0581,205.806,1196.71,10.9849,467.993,853.373,-21.3149,441.472,657.306,-83.1052,437.797,461.442,-163.906,388.296,251.294,-233.212,336.22,205.244,-18.4897,397.112,190.813,121.822,86.2442,865.089,131.707,123.191,675.549,104.905,121.931,464.303,92.6249,167.906,221.858,25.782,219.342,199.662,237.491,175.039,199.203
66,0,102.756,411.514,1142.52,125.856,138.651,1150.46,-99.0572,309.194,1199.8,-87.1386,203.831,1196.94,14.2785,467.328,853.656,-15.248,441.733,657.25,-79.6605,437.865,462.101,-165.186,388.217,254.003,-235.356,335.927,209.471,-21.4066,396.888,190.669,121.41,85.256,865.012,130.222,122.28,675.362,102.705,121.282,464.037,89.7553,167.668,221.717,22.9579,219.107,199.527,234.622,174.929,199.182
67,0,102.706,410.28,1143.21,126.937,137.496,1150.42,-98.6683,307.193,1199.93,-86.3099,201.862,1197.18,17.7558,466.776,854.021,-8.81283,442.162,657.283,-75.901,438.09,462.926,-166.192,388.22,257.045,-237.247,335.702,214.271,-24.358,396.639,190.508,120.892,84.2763,864.937,128.597,121.367,675.18,100.427,120.646,463.765,86.9161,167.443,221.572,20.1551,218.895,199.383,231.77,174.827,199.155
68,0,102.562,409.075,1143.94,127.917,136.366,1150.39,-98.3758,305.192,1200.07,-85.574,199.905,1197.44,21.4032,466.338,854.472,-2.03904,442.752,657.416,-71.8388,438.47,463.929,-166.9,388.306,260.426,-238.847,335.548,219.645,-27.3511,396.362,190.339,120.26,83.3065,864.859,126.821,120.455,675,98.0641,120.027,463.488,84.0907,167.234,221.422,17.3544,218.703,199.235,228.921,174.733,199.115
69,0,102.329,407.902,1144.69,128.796,135.262,1150.36,-98.1778,303.2,1200.22,-84.9321,197.965,1197.71,25.2032,466.017,855.007,5.0395,443.493,657.657,-67.4885,439,465.119,-167.287,388.476,264.139,-240.114,335.467,225.583,-30.388,396.058,190.171,119.508,82.348,864.772,124.888,119.545,674.82,95.6135,119.431,463.208,81.2651,167.038,221.27,14.5407,218.53,199.088,226.063,174.649,199.057
70,0,102.011,406.762,1145.47,129.572,134.185,1150.34,-98.0718,301.223,1200.37,-84.3846,196.052,1197.99,29.1345,465.809,855.626,12.3849,444.373,658.015,-62.8673,439.673,466.503,-167.331,388.728,268.175,-241.011,335.454,232.058,-33.4631,395.727,190.022,118.632,81.4016,864.674,122.794,118.641,674.637,93.0725,118.859,462.924,78.4287,166.854,221.118,11.7025,218.372,198.947,223.189,174.572,198.981
71,0,101.617,405.657,1146.27,130.245,133.135,1150.31,-98.0541,299.271,1200.53,-83.9314,194.171,1198.27,33.1722,465.711,856.325,19.9558,445.378,658.496,-57.9951,440.476,468.081,-167.016,389.058,272.514,-241.502,335.502,239.029,-36.5621,395.376,189.91,117.627,80.4679,864.561,120.536,117.742,674.45,90.4399,118.312,462.639,75.5737,166.68,220.965,8.83228,218.228,198.813,220.292,174.502,198.887
72,0,101.152,404.587,1147.06,130.816,132.113,1150.29,-98.1205,297.353,1200.69,-83.5717,192.332,1198.56,37.2881,465.717,857.102,27.7077,446.489,659.106,-52.8941,441.395,469.854,-166.328,389.458,277.13,-241.556,335.6,246.437,-39.6594,395.011,189.861,116.491,79.5479,864.432,118.114,116.851,674.258,87.7156,117.792,462.355,72.695,166.513,220.814,5.92621,218.095,198.688,217.369,174.438,198.778
73,0,100.626,403.552,1147.86,131.285,131.118,1150.26,-98.2663,295.476,1200.85,-83.304,190.539,1198.84,41.4511,465.816,857.952,35.5941,447.689,659.848,-47.5882,442.412,471.817,-165.258,389.921,281.988,-241.149,335.733,254.209,-42.7177,394.644,189.9,115.226,78.6425,864.286,115.529,115.97,674.062,84.9004,117.299,462.073,69.7903,166.352,220.665,2.98332,217.971,198.574,214.42,174.377,198.657
74,0,100.046,402.554,1148.64,131.653,130.151,1150.23,-98.486,293.65,1201,-83.1262,188.802,1199.12,45.6279,465.999,858.87,43.5666,448.956,660.724,-42.1035,443.507,473.959,-163.804,390.435,287.046,-240.263,335.886,262.257,-45.6862,394.29,190.057,113.831,77.7531,864.122,112.784,115.098,673.862,81.9956,116.832,461.797,66.8587,166.194,220.519,0.00502365,217.856,198.469,211.444,174.318,198.528
75,0,99.4194,401.59,1149.41,131.923,129.212,1150.19,-98.774,291.882,1201.15,-83.0357,187.126,1199.39,49.7838,466.254,859.847,51.576,450.269,661.735,-36.4671,444.66,476.267,-161.969,390.992,292.256,-238.888,336.043,270.478,-48.5012,393.965,190.361,112.31,76.8814,863.941,109.885,114.238,673.659,79.0027,116.39,461.528,63.9011,166.037,220.376,-3.00557,217.749,198.373,208.444,174.259,198.396
76,0,98.7556,400.662,1150.16,132.097,128.299,1150.14,-99.1243,290.181,1201.29,-83.0292,185.518,1199.65,53.8836,466.566,860.877,59.573,451.606,662.878,-30.7068,445.848,478.723,-159.758,391.579,297.563,-237.024,336.186,278.758,-51.086,393.691,190.84,110.667,76.0296,863.742,106.837,113.391,673.454,75.9234,115.971,461.269,60.9191,165.88,220.236,-6.04433,217.648,198.284,205.422,174.199,198.265
77,0,98.0622,399.769,1150.89,132.178,127.412,1150.09,-99.5308,288.553,1201.43,-83.103,183.983,1199.9,57.8927,466.923,861.952,67.509,452.945,664.148,-24.8511,447.048,481.307,-157.183,392.185,302.907,-234.679,336.305,286.976,-53.3527,393.49,191.521,108.907,75.2003,863.528,103.647,112.558,673.249,72.7596,115.573,461.021,57.9144,165.722,220.101,-9.10669,217.556,198.2,202.38,174.138,198.139
78,0,97.3467,398.91,1151.59,132.169,126.553,1150.03,-99.9872,287.004,1201.56,-83.2527,182.526,1200.14,61.7776,467.309,863.062,75.3367,454.265,665.54,-18.9277,448.24,483.992,-154.259,392.801,308.225,-231.866,336.388,295.004,-55.204,393.384,192.425,107.038,74.3962,863.299,100.324,111.741,673.044,69.5134,115.193,460.786,54.8891,165.562,219.969,-12.1882,217.471,198.119,199.322,174.075,198.019
79,0,96.6163,398.084,1152.25,132.073,125.719,1149.95,-100.488,285.539,1201.69,-83.4737,181.149,1200.36,65.5072,467.709,864.198,83.0107,455.545,667.046,-12.9638,449.402,486.752,-151.002,393.418,313.449,-228.609,336.433,302.711,-56.537,393.396,193.565,105.067,73.6204,863.057,96.8791,110.941,672.841,66.187,114.83,460.565,51.8446,165.402,219.841,-15.2847,217.395,198.04,196.249,174.011,197.908
80,0,95.8775,397.291,1152.89,131.896,124.911,1149.86,-101.026,284.162,1201.82,-83.7609,179.857,1200.57,69.0538,468.111,865.353,90.4885,456.766,668.656,-6.98506,450.516,489.555,-147.43,394.03,318.509,-224.934,336.439,309.968,-57.2464,393.546,194.947,103.002,72.8761,862.805,93.3215,110.159,672.64,62.7828,114.481,460.36,48.7819,165.242,219.716,-18.393,217.328,197.96,193.165,173.945,197.808
81,0,95.1361,396.531,1153.49,131.642,124.13,1149.76,-101.597,282.877,1201.95,-84.109,178.652,1200.76,72.3936,468.501,866.516,97.7304,457.91,670.357,-1.01535,451.564,492.369,-143.559,394.632,323.334,-220.873,336.414,316.652,-57.229,393.851,196.566,100.852,72.1661,862.542,89.6637,109.399,672.443,59.3038,114.144,460.171,45.7015,165.082,219.594,-21.5107,217.269,197.879,190.07,173.879,197.717
82,0,94.3973,395.803,1154.06,131.314,123.376,1149.65,-102.194,281.685,1202.08,-84.5123,177.533,1200.95,75.5072,468.867,867.681,104.701,458.962,672.138,4.92398,452.533,495.16,-139.403,395.223,327.855,-216.456,336.371,322.647,-56.3886,394.325,198.41,98.6261,71.4932,862.273,85.9182,108.662,672.248,55.7535,113.817,459.998,42.6031,164.925,219.476,-24.6361,217.22,197.794,186.965,173.812,197.636
83,0,93.6654,395.108,1154.6,130.919,122.65,1149.51,-102.813,280.586,1202.21,-84.965,176.501,1201.12,78.3806,469.2,868.839,111.367,459.908,673.983,10.8143,453.411,497.894,-134.975,395.802,332.002,-211.715,336.326,327.852,-54.6396,394.973,200.451,96.3331,70.8596,861.997,82.0986,107.951,672.057,52.136,113.498,459.843,39.4859,164.771,219.359,-27.7686,217.179,197.706,183.85,173.745,197.564
84,0,92.9441,394.444,1155.11,130.462,121.951,1149.37,-103.45,279.581,1202.35,-85.461,175.556,1201.28,81.0048,469.493,869.984,117.702,460.738,675.877,16.6401,454.191,500.537,-130.281,396.371,335.711,-206.677,336.301,332.177,-51.9118,395.797,202.655,93.982,70.2669,861.718,78.2193,107.268,671.869,48.4564,113.186,459.704,36.3488,164.623,219.246,-30.9084,217.147,197.615,180.727,173.679,197.499
85,0,92.2361,393.813,1155.6,129.948,121.283,1149.2,-104.098,278.668,1202.5,-85.9944,174.695,1201.44,83.3761,469.738,871.111,123.682,461.443,677.804,22.3891,454.866,503.054,-125.324,396.936,338.92,-201.365,336.319,335.552,-48.1536,396.792,204.976,91.5812,69.7161,861.436,74.2953,106.615,671.683,44.7208,112.879,459.581,33.1903,164.482,219.134,-34.056,217.122,197.519,177.593,173.613,197.438
86,0,91.5436,393.215,1156.06,129.383,120.646,1149.02,-104.755,277.844,1202.66,-86.559,173.917,1201.59,85.496,469.932,872.215,129.287,462.017,679.746,28.0521,455.437,505.416,-120.103,397.501,341.577,-195.795,336.403,337.923,-43.3339,397.945,207.364,89.139,69.2076,861.153,70.3421,105.995,671.497,40.9366,112.579,459.473,30.0092,164.349,219.025,-37.2126,217.105,197.421,174.449,173.549,197.381
87,0,90.8683,392.651,1156.5,128.772,120.041,1148.81,-105.417,277.106,1202.84,-87.1488,173.218,1201.74,87.3706,470.074,873.295,134.502,462.459,681.687,33.6233,455.904,507.593,-114.61,398.072,343.634,-189.976,336.577,339.259,-37.4438,399.241,209.762,86.663,68.7411,860.871,66.3757,105.41,671.311,37.1121,112.284,459.379,26.8041,164.225,218.917,-40.3793,217.093,197.32,171.293,173.484,197.324
88,0,90.211,392.121,1156.91,128.121,119.471,1148.59,-106.079,276.451,1203.04,-87.7578,172.595,1201.88,89.0102,470.165,874.347,139.316,462.766,683.61,39.0998,456.27,509.559,-108.834,398.656,345.055,-183.907,336.858,339.547,-30.4966,400.657,212.111,84.1604,68.3155,860.589,62.4122,104.864,671.122,33.2572,111.995,459.297,23.5743,164.111,218.811,-43.5574,217.085,197.218,168.125,173.42,197.268
89,0,89.5725,391.627,1157.31,127.437,118.938,1148.34,-106.74,275.875,1203.26,-88.3801,172.044,1202.03,90.4283,470.206,875.371,143.721,462.94,685.497,44.481,456.541,511.291,-102.761,399.258,345.815,-177.579,337.261,338.794,-22.5265,402.17,214.356,81.6382,67.9294,860.31,58.4679,104.359,670.928,29.3826,111.714,459.225,20.3196,164.007,218.707,-46.748,217.08,197.114,164.942,173.355,197.209
90,0,88.9532,391.17,1157.7,126.724,118.442,1148.08,-107.395,275.372,1203.5,-89.0102,171.562,1202.18,91.6412,470.201,876.368,147.714,462.985,687.332,49.7688,456.727,512.772,-96.3756,399.883,345.9,-170.974,337.794,337.024,-13.5864,403.755,216.444,79.1029,67.5812,860.033,54.5587,103.896,670.728,25.5002,111.441,459.162,17.0402,163.915,218.604,-49.9519,217.077,197.01,161.744,173.289,197.147
91,0,88.353,390.751,1158.07,125.989,117.988,1147.79,-108.041,274.939,1203.76,-89.6425,171.145,1202.33,92.6665,470.158,877.337,151.292,462.907,689.101,54.9661,456.835,513.989,-89.6589,400.534,345.309,-164.069,338.459,334.282,-3.74508,405.385,218.331,76.5613,67.2689,859.76,50.7002,103.479,670.52,21.6227,111.18,459.106,13.7373,163.832,218.502,-53.1694,217.075,196.906,158.531,173.222,197.081
92,0,87.7722,390.371,1158.43,125.238,117.575,1147.48,-108.677,274.57,1204.05,-90.2716,170.788,1202.5,93.5229,470.081,878.28,154.457,462.714,690.787,60.0768,456.876,514.932,-82.5935,401.213,344.054,-156.834,339.251,330.625,6.91657,407.035,219.981,74.0198,66.9907,859.49,46.9074,103.11,670.301,17.7635,110.932,459.055,10.4127,163.76,218.402,-56.4005,217.072,196.803,155.303,173.151,197.011
93,0,87.211,390.033,1158.79,124.475,117.208,1147.14,-109.299,274.261,1204.36,-90.8926,170.488,1202.67,94.2287,469.98,879.198,157.215,462.413,692.378,65.105,456.861,515.599,-75.1635,401.917,342.161,-149.237,340.159,326.127,18.3091,408.682,221.37,71.4851,66.7453,859.224,43.1942,102.789,670.071,13.9359,110.7,459.008,7.06891,163.697,218.303,-59.6445,217.067,196.699,152.058,173.078,196.936
94,0,86.6698,389.737,1159.13,123.707,116.887,1146.79,-109.903,274.008,1204.7,-91.5006,170.243,1202.84,94.8011,469.862,880.091,159.57,462.016,693.861,70.0539,456.799,515.991,-67.3552,402.645,339.667,-141.244,341.165,320.874,30.3383,410.305,222.487,68.9645,66.5316,858.961,39.5735,102.52,669.828,10.1533,110.486,458.963,3.70903,163.642,218.205,-62.9007,217.06,196.597,148.798,173.002,196.856
95,0,86.1493,389.485,1159.47,122.939,116.614,1146.41,-110.488,273.807,1205.06,-92.091,170.049,1203.03,95.256,469.736,880.96,161.531,461.532,695.224,74.9258,456.701,516.114,-59.1593,403.391,336.624,-132.824,342.247,314.959,42.9085,411.885,223.334,66.4652,66.3493,858.701,36.0567,102.302,669.572,6.4284,110.293,458.918,0.336693,163.595,218.108,-66.1676,217.05,196.494,145.524,172.923,196.772
96,0,85.6508,389.279,1159.81,122.177,116.392,1146.01,-111.049,273.656,1205.44,-92.6593,169.904,1203.23,95.6067,469.61,881.804,163.108,460.974,696.459,79.7207,456.576,515.979,-50.5719,404.147,333.09,-123.949,343.38,308.487,55.9253,413.407,223.923,63.9953,66.199,858.445,32.6535,102.137,669.301,2.77297,110.123,458.873,-3.04417,163.554,218.012,-69.4437,217.037,196.392,142.237,172.841,196.682
97,0,85.1758,389.119,1160.13,121.426,116.221,1145.59,-111.584,273.552,1205.84,-93.2016,169.806,1203.43,95.864,469.493,882.621,164.311,460.353,697.557,84.4364,456.432,515.602,-41.5953,404.906,329.135,-114.601,344.537,301.566,69.2975,414.856,224.277,61.563,66.082,858.191,29.372,102.026,669.017,-0.802572,109.979,458.827,-6.42949,163.518,217.918,-72.7273,217.02,196.289,138.939,172.758,196.589
98,0,84.7266,389.006,1160.45,120.69,116.103,1145.14,-112.089,273.493,1206.26,-93.7137,169.755,1203.65,96.036,469.391,883.408,165.152,459.681,698.51,89.0679,456.275,515.002,-32.2399,405.656,324.836,-104.771,345.691,294.309,82.9382,416.219,224.43,59.1771,66.0006,857.941,26.2183,101.969,668.719,-4.28954,109.864,458.779,-9.81526,163.488,217.825,-76.0167,217,196.186,135.632,172.674,196.491
99,0,84.3059,388.942,1160.76,119.976,116.038,1144.68,-112.56,273.478,1206.7,-94.192,169.75,1203.87,96.1276,469.312,884.162,165.643,458.969,699.314,93.6068,456.111,514.2,-22.5246,406.388,320.271,-94.4626,346.815,286.83,96.7652,417.486,224.42,56.8463,65.9578,857.692,23.1964,101.966,668.409,-7.68121,109.777,458.73,-13.1977,163.462,217.734,-79.3101,216.978,196.082,132.319,172.59,196.389
100,0,83.9173,388.927,1161.06,119.287,116.029,1144.2,-112.993,273.508,1207.14,-94.633,169.791,1204.09,96.1414,469.262,884.877,165.797,458.229,699.965,98.0418,455.943,513.219,-12.4786,407.088,315.524,-83.6947,347.886,279.243,110.701,418.647,224.287,54.5799,65.9574,857.446,20.3085,102.016,668.088,-10.9731,109.722,458.68,-16.5735,163.439,217.645,-82.6061,216.953,195.978,129.001,172.508,196.283
101,0,83.5645,388.961,1161.35,118.63,116.074,1143.71,-113.385,273.582,1207.59,-95.0333,169.879,1204.32,96.0773,469.245,885.547,165.63,457.472,700.46,102.358,455.775,512.085,-2.1411,407.747,310.677,-72.5016,348.882,271.658,124.669,419.691,224.075,52.3866,66.0039,857.2,17.5547,102.12,667.758,-14.1628,109.699,458.628,-19.9401,163.421,217.56,-85.9035,216.927,195.875,125.682,172.428,196.175
102,0,83.2523,389.046,1161.62,118.008,116.175,1143.2,-113.731,273.702,1208.04,-95.3897,170.015,1204.54,95.9337,469.264,886.165,165.155,456.708,700.799,106.538,455.606,510.824,8.43709,408.353,305.809,-60.9353,349.786,264.18,138.599,420.611,223.822,50.2751,66.1019,856.955,14.9334,102.275,667.421,-17.2506,109.709,458.576,-23.2953,163.405,217.479,-89.2015,216.9,195.772,122.362,172.353,196.063
103,0,82.9855,389.181,1161.88,117.426,116.332,1142.67,-114.027,273.871,1208.49,-95.6992,170.201,1204.76,95.7072,469.322,886.722,164.388,455.946,700.98,110.561,455.437,509.46,19.194,408.896,300.994,-49.065,350.586,256.908,152.416,421.399,223.564,48.2533,66.2563,856.71,12.4412,102.482,667.08,-20.2387,109.751,458.525,-26.6382,163.394,217.403,-92.4998,216.873,195.671,119.043,172.282,195.95
104,0,82.7696,389.366,1162.12,116.888,116.544,1142.13,-114.269,274.089,1208.92,-95.9589,170.44,1204.97,95.3943,469.42,887.21,163.343,455.196,701.007,114.404,455.268,508.016,30.0564,409.369,296.302,-36.9768,351.272,249.928,166.047,422.049,223.327,46.3286,66.472,856.464,10.0735,102.739,666.738,-23.1313,109.826,458.475,-29.9684,163.386,217.333,-95.7983,216.848,195.573,115.727,172.216,195.835
105,0,82.6104,389.602,1162.34,116.399,116.811,1141.59,-114.453,274.362,1209.35,-96.1664,170.733,1205.18,94.9911,469.559,887.622,162.039,454.465,700.882,118.042,455.095,506.516,40.9403,409.763,291.789,-24.773,351.839,243.318,179.415,422.556,223.132,44.5073,66.7531,856.215,7.82435,103.045,666.396,-25.9345,109.934,458.427,-33.2867,163.382,217.27,-99.0976,216.824,195.478,112.413,172.156,195.72
106,0,82.5138,389.887,1162.54,115.962,117.133,1141.03,-114.575,274.69,1209.76,-96.319,171.084,1205.36,94.4948,469.738,887.947,160.491,453.761,700.609,121.45,454.918,504.979,51.7526,410.075,287.507,-12.5696,352.287,237.139,192.441,422.919,222.988,42.7945,67.1034,855.964,5.68721,103.399,666.058,-28.6556,110.072,458.383,-36.5943,163.384,217.215,-102.399,216.802,195.389,109.101,172.102,195.605
107,0,82.4859,390.221,1162.71,115.582,117.509,1140.47,-114.63,275.079,1210.14,-96.4146,171.495,1205.53,93.9037,469.955,888.178,158.716,453.09,700.194,124.601,454.734,503.421,62.3918,410.302,283.492,-0.494271,352.617,231.441,205.041,423.138,222.893,41.1942,67.5257,855.709,3.65491,103.798,665.726,-31.3029,110.241,458.343,-39.8934,163.39,217.169,-105.702,216.783,195.305,105.791,172.053,195.491
108,0,82.5327,390.605,1162.85,115.261,117.938,1139.91,-114.616,275.532,1210.49,-96.4511,171.97,1205.67,93.2182,470.21,888.31,156.733,452.459,699.642,127.468,454.541,501.857,72.7513,410.442,279.771,11.317,352.835,226.255,217.129,423.217,222.84,39.7092,68.0219,855.448,1.72021,104.243,665.402,-33.8854,110.439,458.307,-43.1867,163.401,217.132,-109.011,216.768,195.228,102.481,172.009,195.378
109,0,82.66,391.037,1162.96,115.003,118.419,1139.35,-114.529,276.052,1210.81,-96.4269,172.511,1205.79,92.4412,470.499,888.336,154.56,451.872,698.96,130.027,454.337,500.297,82.7211,410.496,276.359,22.724,352.95,221.598,228.62,423.161,222.808,38.3409,68.5926,855.18,-0.123944,104.731,665.086,-36.4119,110.665,458.277,-46.4772,163.418,217.104,-112.325,216.757,195.157,99.1684,171.967,195.269
110,0,82.8732,391.517,1163.05,114.81,118.953,1138.79,-114.366,276.643,1211.1,-96.3405,173.121,1205.87,91.5783,470.82,888.253,152.214,451.335,698.158,132.254,454.124,498.748,92.1916,410.468,273.259,33.5862,352.972,217.471,239.425,422.98,222.773,37.0896,69.2371,854.904,-1.88409,105.262,664.782,-38.891,110.918,458.253,-49.7683,163.441,217.086,-115.647,216.748,195.094,95.8524,171.928,195.162
111,0,83.1773,392.044,1163.1,114.684,119.537,1138.24,-114.126,277.309,1211.34,-96.1908,173.802,1205.93,90.6379,471.171,888.06,149.715,450.852,697.245,134.126,453.9,497.217,101.057,410.362,270.465,43.7677,352.914,213.862,249.463,422.684,222.705,35.9543,69.9536,854.619,-3.56597,105.835,664.489,-41.3304,111.197,458.234,-53.063,163.47,217.078,-118.979,216.744,195.038,92.5303,171.89,195.059
112,0,83.5767,392.617,1163.11,114.628,120.171,1137.69,-113.807,278.052,1211.54,-95.9769,174.557,1205.94,89.6314,471.55,887.756,147.081,450.426,696.231,135.627,453.667,495.705,109.217,410.185,267.962,53.1419,352.79,210.744,258.656,422.286,222.571,34.9334,70.739,854.323,-5.17427,106.449,664.207,-43.7368,111.502,458.22,-56.3645,163.504,217.078,-122.321,216.742,194.988,89.1999,171.851,194.958
113,0,84.075,393.237,1163.1,114.643,120.853,1137.15,-113.407,278.875,1211.69,-95.6985,175.388,1205.92,88.5728,471.955,887.345,144.331,450.063,695.126,136.742,453.43,494.212,116.585,409.945,265.727,61.5963,352.615,208.082,266.936,421.801,222.337,34.0241,71.5893,854.015,-6.7125,107.103,663.937,-46.1152,111.83,458.212,-59.6752,163.544,217.087,-125.675,216.744,194.943,85.8594,171.811,194.86
114,0,84.6749,393.902,1163.05,114.729,121.584,1136.62,-112.927,279.78,1211.8,-95.3555,176.295,1205.86,87.4784,472.385,886.833,141.482,449.766,693.943,137.46,453.191,492.738,123.085,409.649,263.73,69.037,352.404,205.83,274.249,421.243,221.972,33.2233,72.4993,853.695,-8.1828,107.798,663.678,-48.4692,112.183,458.209,-62.9972,163.589,217.103,-129.042,216.748,194.903,82.507,171.768,194.765
115,0,85.3782,394.612,1162.97,114.888,122.361,1136.11,-112.366,280.769,1211.86,-94.9485,177.28,1205.76,86.3664,472.838,886.226,138.554,449.538,692.694,137.775,452.957,491.281,128.661,409.308,261.939,75.3926,352.172,203.94,280.554,420.63,221.45,32.5273,73.4631,853.362,-9.58593,108.533,663.43,-50.8003,112.559,458.21,-66.3316,163.64,217.125,-132.421,216.754,194.867,79.1416,171.722,194.67
116,0,86.1856,395.366,1162.87,115.118,123.185,1135.62,-111.727,281.843,1211.87,-94.4783,178.344,1205.62,85.2559,473.314,885.534,135.562,449.382,691.391,137.688,452.736,489.838,133.273,408.931,260.322,80.6174,351.932,202.359,285.829,419.978,220.75,31.9324,74.4746,853.016,-10.9212,109.307,663.191,-53.1084,112.961,458.216,-69.6789,163.697,217.153,-135.812,216.761,194.833,75.7627,171.673,194.577
117,0,87.0966,396.165,1162.73,115.42,124.054,1135.15,-111.011,283.002,1211.83,-93.9462,179.486,1205.44,84.1668,473.814,884.768,132.524,449.301,690.049,137.203,452.534,488.408,136.904,408.529,258.845,84.6931,351.699,201.036,290.068,419.304,219.863,31.4348,75.5271,852.656,-12.1867,110.122,662.961,-55.3911,113.387,458.226,-73.0382,163.76,217.187,-139.215,216.771,194.801,72.3704,171.621,194.482
118,0,88.1098,397.007,1162.57,115.792,124.968,1134.71,-110.221,284.246,1211.75,-93.3541,180.705,1205.21,83.1181,474.339,883.943,129.455,449.297,688.68,136.331,452.361,486.989,139.558,408.112,257.477,87.6302,351.482,199.924,293.289,418.627,218.787,31.0309,76.6141,852.283,-13.379,110.976,662.739,-57.6447,113.839,458.242,-76.408,163.829,217.225,-142.626,216.783,194.772,68.9654,171.568,194.387
119,0,89.2223,397.893,1162.38,116.231,125.927,1134.29,-109.36,285.574,1211.63,-92.7044,182.002,1204.95,82.128,474.89,883.072,126.37,449.373,687.298,135.087,452.227,485.581,141.26,407.69,256.191,89.4668,351.292,198.978,295.526,417.965,217.529,30.7175,77.7294,851.9,-14.4938,111.871,662.524,-59.8635,114.319,458.263,-79.7855,163.906,217.269,-146.044,216.797,194.747,65.5494,171.513,194.29
120,0,90.43,398.822,1162.18,116.737,126.929,1133.9,-108.432,286.984,1211.46,-91.9998,183.373,1204.66,81.2124,475.469,882.17,123.281,449.529,685.917,133.492,452.14,484.185,142.054,407.274,254.965,90.267,351.134,198.162,296.832,417.334,216.109,30.4919,78.8671,851.506,-15.5259,112.806,662.315,-62.0406,114.828,458.292,-83.167,163.992,217.321,-149.464,216.816,194.727,62.1247,171.459,194.189
121,0,91.7278,399.794,1161.96,117.305,127.974,1133.54,-107.443,288.475,1211.27,-91.2435,184.818,1204.33,80.3846,476.077,881.253,120.2,449.767,684.55,131.57,452.109,482.804,142.004,406.874,253.784,90.1177,351.014,197.446,297.278,416.753,214.553,30.3517,80.0223,851.105,-16.4693,113.781,662.112,-64.1677,115.367,458.329,-86.5477,164.087,217.381,-152.884,216.84,194.716,58.6941,171.408,194.087
122,0,93.1093,400.809,1161.73,117.933,129.062,1133.22,-106.397,290.043,1211.03,-90.4394,186.333,1203.97,79.6542,476.716,880.337,117.139,450.087,683.208,129.352,452.142,481.443,141.188,406.497,252.636,89.1235,350.933,196.809,296.945,416.235,212.898,30.2953,81.1906,850.699,-17.3175,114.796,661.915,-66.2359,115.939,458.378,-89.9222,164.194,217.453,-156.296,216.872,194.72,55.2613,171.361,193.981
123,0,94.5671,401.868,1161.49,118.616,130.192,1132.93,-105.3,291.685,1210.78,-89.5915,187.915,1203.58,79.0273,477.389,879.435,114.107,450.488,681.905,126.87,452.247,480.107,139.693,406.154,251.516,87.4023,350.893,196.235,295.925,415.795,211.183,30.3216,82.369,850.292,-18.0639,115.85,661.725,-68.2355,116.544,458.442,-93.284,164.315,217.542,-159.698,216.914,194.743,51.8304,171.322,193.874
124,0,96.0929,402.969,1161.25,119.35,131.365,1132.68,-104.159,293.397,1210.5,-88.7042,189.562,1203.17,78.5056,478.096,878.563,111.112,450.968,680.651,124.158,452.428,478.805,137.618,405.85,250.426,85.0788,350.891,195.716,294.317,415.442,209.45,30.43,83.555,849.887,-18.7017,116.943,661.543,-70.1568,117.183,458.523,-96.6265,164.451,217.652,-163.081,216.969,194.793,48.4059,171.293,193.765
125,0,97.6773,404.113,1161,120.131,132.58,1132.48,-102.98,295.175,1210.21,-87.7826,191.269,1202.75,78.0863,478.84,877.731,108.161,451.525,679.456,121.254,452.688,477.543,135.062,405.593,249.37,82.2792,350.925,195.247,292.221,415.182,207.744,30.6202,84.7475,849.489,-19.2246,118.072,661.369,-71.9899,117.859,458.625,-99.9424,164.602,217.79,-166.441,217.04,194.88,44.9926,171.275,193.656
126,0,99.3103,405.3,1160.76,120.953,133.836,1132.32,-101.771,297.014,1209.9,-86.8316,193.033,1202.32,77.7625,479.62,876.95,105.259,452.155,678.328,118.193,453.028,476.332,132.125,405.385,248.355,79.1249,350.991,194.828,289.733,415.018,206.104,30.8925,85.9463,849.104,-19.6266,119.236,661.206,-73.7254,118.569,458.752,-103.225,164.772,217.961,-169.772,217.129,195.012,41.5955,171.27,193.549
127,0,100.981,406.53,1160.53,121.811,135.134,1132.21,-100.539,298.909,1209.59,-85.8568,194.849,1201.88,77.5234,480.438,876.23,102.412,452.853,677.275,115.014,453.447,475.178,128.901,405.229,247.392,75.7282,351.084,194.46,286.947,414.947,204.566,31.2473,87.1521,848.735,-19.9022,120.434,661.055,-75.3547,119.314,458.909,-106.466,164.959,218.174,-173.066,217.238,195.202,38.2195,171.28,193.444
128,0,102.679,407.803,1160.31,122.699,136.472,1132.14,-99.2901,300.854,1209.28,-84.8636,196.713,1201.43,77.3544,481.293,875.575,99.6228,453.615,676.302,111.749,453.941,474.092,125.48,405.127,246.49,72.1884,351.199,194.144,283.946,414.962,203.16,31.6849,88.3663,848.389,-20.0471,121.661,660.918,-76.8701,120.092,459.099,-109.659,165.163,218.435,-176.319,217.369,195.459,34.8693,171.306,193.343
129,0,104.393,409.119,1160.1,123.611,137.852,1132.12,-98.0331,302.845,1208.98,-83.8578,198.62,1201,77.2382,482.185,874.99,96.8951,454.435,675.413,108.434,454.504,473.08,121.938,405.076,245.658,68.5887,351.331,193.883,280.803,415.051,201.908,32.2057,89.5911,848.071,-20.0573,122.916,660.798,-78.2649,120.901,459.326,-112.798,165.384,218.753,-179.526,217.523,195.797,31.5491,171.348,193.249
130,0,106.111,410.477,1159.91,124.543,139.272,1132.15,-96.775,304.875,1208.69,-82.8453,200.565,1200.57,77.1551,483.111,874.477,94.2311,455.306,674.611,105.096,455.129,472.149,118.343,405.073,244.905,64.9949,351.473,193.677,277.58,415.2,200.821,32.8098,90.8289,847.785,-19.9303,124.193,660.696,-79.5339,121.735,459.593,-115.878,165.618,219.134,-182.683,217.698,196.226,28.2628,171.405,193.163
131,0,107.821,411.877,1159.74,125.487,140.731,1132.23,-95.5231,306.938,1208.41,-81.8318,202.544,1200.15,77.0841,484.07,874.035,91.6324,456.221,673.895,101.764,455.806,471.302,114.75,405.113,244.236,61.4553,351.621,193.524,274.326,415.393,199.905,33.497,92.0824,847.537,-19.6643,125.488,660.614,-80.6735,122.592,459.902,-118.893,165.863,219.586,-185.786,217.892,196.757,25.0133,171.476,193.086
132,0,109.513,413.318,1159.58,126.437,142.23,1132.36,-94.2848,309.028,1208.15,-80.8233,204.552,1199.76,77.0037,485.061,873.662,89.1004,457.173,673.264,98.4604,456.524,470.542,111.198,405.188,243.655,58.0015,351.768,193.422,271.077,415.613,199.157,34.2666,93.3544,847.33,-19.2585,126.798,660.554,-81.6816,123.465,460.255,-121.841,166.114,220.115,-188.834,218.101,197.399,21.803,171.56,193.019
133,0,111.175,414.801,1159.45,127.389,143.767,1132.54,-93.0669,311.141,1207.91,-79.8255,206.584,1199.38,76.893,486.081,873.353,86.6359,458.155,672.716,95.2031,457.272,469.871,107.717,405.291,243.16,54.6498,351.91,193.364,267.86,415.841,198.566,35.1174,94.6472,847.169,-18.7128,128.116,660.515,-82.5575,124.348,460.654,-124.72,166.365,220.724,-191.825,218.32,198.161,18.6333,171.653,192.965
134,0,112.798,416.324,1159.34,128.335,145.341,1132.76,-91.876,313.27,1207.69,-78.8442,208.634,1199.03,76.7321,487.127,873.103,84.2395,459.161,672.248,92.0077,458.039,469.285,104.326,405.413,242.75,51.4038,352.041,193.346,264.689,416.062,198.118,36.0475,95.9631,847.055,-18.0282,129.437,660.499,-83.3023,125.233,461.097,-127.528,166.61,221.419,-194.762,218.541,199.047,15.5046,171.753,192.922
135,0,114.372,417.886,1159.24,129.27,146.951,1133.04,-90.7187,315.41,1207.49,-77.8849,210.7,1198.71,76.5034,488.197,872.904,81.9116,460.183,671.853,88.8853,458.813,468.782,101.033,405.546,242.418,48.2571,352.158,193.36,261.571,416.262,197.794,37.0547,97.3035,846.99,-17.206,130.755,660.506,-83.9182,126.114,461.584,-130.267,166.841,222.199,-197.644,218.756,200.061,12.4165,171.855,192.893
136,0,115.887,419.487,1159.17,130.188,148.595,1133.35,-89.6008,317.556,1207.32,-76.9529,212.775,1198.41,76.1919,489.289,872.75,79.6523,461.217,671.525,85.8439,459.584,468.355,97.8368,405.681,242.158,45.1959,352.257,193.398,258.506,416.429,197.572,38.1361,98.6693,846.974,-16.2479,132.065,660.533,-84.4089,126.983,462.111,-132.938,167.05,223.066,-200.476,218.955,201.205,9.36784,171.957,192.875
137,0,117.336,421.124,1159.11,131.084,150.272,1133.72,-88.528,319.703,1207.17,-76.0535,214.855,1198.14,75.7859,490.4,872.631,77.4615,462.256,671.258,82.8884,460.342,467.999,94.7316,405.811,241.959,42.2021,352.336,193.454,255.488,416.557,197.431,39.2882,100.06,847.006,-15.1557,133.36,660.579,-84.7786,127.831,462.676,-135.543,167.231,224.017,-203.261,219.129,202.476,6.35641,172.055,192.869
138,0,118.711,422.795,1159.07,131.952,151.98,1134.12,-87.5053,321.845,1207.04,-75.1916,216.937,1197.91,75.2775,491.529,872.541,75.3389,463.297,671.043,80.0209,461.081,467.704,91.7067,405.93,241.812,39.2552,352.392,193.52,252.509,416.641,197.35,40.5074,101.476,847.085,-13.9312,134.635,660.641,-85.0323,128.653,463.274,-138.087,167.375,225.049,-206.004,219.266,203.87,3.37943,172.144,192.873
139,0,120.007,424.499,1159.04,132.787,153.715,1134.56,-86.5376,323.979,1206.93,-74.3719,219.016,1197.7,74.6624,492.673,872.47,73.2839,464.336,670.873,77.2419,461.794,467.461,88.7481,406.033,241.706,36.3349,352.424,193.591,249.557,416.68,197.309,41.79,102.914,847.207,-12.5754,135.885,660.716,-85.1753,129.441,463.899,-140.573,167.475,226.157,-208.709,219.357,205.381,0.433464,172.221,192.884
140,0,121.219,426.233,1159.02,133.584,155.476,1135.03,-85.6289,326.101,1206.84,-73.5989,221.089,1197.52,73.9404,493.832,872.412,71.2955,465.371,670.739,74.5499,462.479,467.262,85.8409,406.117,241.631,33.4226,352.435,193.66,246.623,416.676,197.291,43.132,104.372,847.368,-11.089,137.103,660.8,-85.2124,130.19,464.547,-143.007,167.526,227.335,-211.381,219.392,207.002,-2.48543,172.283,192.899
141,0,122.342,427.995,1159.01,134.339,157.259,1135.53,-84.7831,328.207,1206.76,-72.8768,223.151,1197.37,73.1148,495.003,872.358,69.3725,466.4,670.634,71.9423,463.133,467.094,82.9702,406.183,241.577,30.5023,352.424,193.723,243.694,416.635,197.282,44.5299,105.845,847.562,-9.47161,138.284,660.888,-85.1481,130.894,465.211,-145.392,167.523,228.577,-214.025,219.364,208.724,-5.38161,172.327,192.915
142,0,123.374,429.78,1159.01,135.045,159.06,1136.07,-84.0034,330.294,1206.7,-72.2093,225.201,1197.24,72.1927,496.186,872.304,67.5128,467.423,670.549,69.4155,463.757,466.95,80.1218,406.23,241.533,27.5618,352.394,193.778,240.761,416.561,197.271,45.9807,107.33,847.783,-7.72165,139.423,660.976,-84.9856,131.55,465.886,-147.734,167.463,229.874,-216.643,219.266,210.541,-8.2597,172.353,192.928
143,0,124.313,431.585,1159,135.699,160.876,1136.62,-83.2924,332.359,1206.64,-71.6001,227.235,1197.13,71.1837,497.378,872.243,65.7138,468.44,670.477,66.965,464.354,466.819,77.2835,406.261,241.494,24.5926,352.349,193.822,237.816,416.462,197.251,47.4818,108.822,848.026,-5.83627,140.516,661.058,-84.7271,132.156,466.565,-150.034,167.345,231.221,-219.239,219.096,212.443,-11.1246,172.358,192.933
144,0,125.158,433.407,1158.99,136.297,162.703,1137.19,-82.6524,334.399,1206.59,-71.0526,229.251,1197.04,70.0999,498.579,872.171,63.9724,469.451,670.412,64.586,464.927,466.692,74.4452,406.28,241.451,21.5898,352.291,193.853,234.854,416.347,197.215,49.0316,110.313,848.283,-3.8112,141.558,661.129,-84.3727,132.71,467.245,-152.297,167.171,232.612,-221.811,218.852,214.428,-13.9812,172.343,192.925
145,0,125.908,435.24,1158.97,136.834,164.536,1137.78,-82.0853,336.414,1206.54,-70.5696,231.246,1196.97,68.9552,499.786,872.085,62.2842,470.456,670.348,62.2729,465.481,466.564,71.5992,406.292,241.4,18.5522,352.226,193.87,231.87,416.223,197.161,50.6296,111.798,848.548,-1.64069,142.545,661.185,-83.9211,133.211,467.922,-154.522,166.943,234.044,-224.358,218.537,216.492,-16.8345,172.309,192.899
146,0,126.566,437.08,1158.95,137.307,166.371,1138.37,-81.5921,338.402,1206.48,-70.154,233.218,1196.9,67.7643,500.999,871.983,60.6442,471.458,670.279,60.0194,466.022,466.426,68.7402,406.302,241.336,15.4809,352.158,193.874,228.862,416.097,197.088,52.2763,113.271,848.815,0.682368,143.475,661.221,-83.3685,133.661,468.594,-156.709,166.667,235.515,-226.877,218.157,218.639,-19.6895,172.257,192.852
147,0,127.132,438.921,1158.91,137.711,168.202,1138.98,-81.1739,340.36,1206.43,-69.808,235.168,1196.85,66.5421,502.213,871.862,59.0463,472.458,670.201,57.8188,466.556,466.274,65.865,406.315,241.257,12.3795,352.092,193.864,225.829,415.975,196.997,53.9734,114.724,849.079,3.16636,144.342,661.234,-82.7094,134.062,469.261,-158.855,166.351,237.027,-229.361,217.72,220.873,-22.5509,172.189,192.782
148,0,127.608,440.759,1158.86,138.044,170.024,1139.58,-80.8308,342.29,1206.36,-69.5339,237.092,1196.79,65.303,503.427,871.721,57.4835,473.456,670.11,55.6633,467.089,466.104,62.9723,406.336,241.162,9.25273,352.031,193.84,222.774,415.864,196.888,55.7237,116.151,849.334,5.82072,145.146,661.223,-81.9361,134.415,469.924,-160.957,166.003,238.584,-231.801,217.24,223.207,-25.4229,172.107,192.686
149,0,127.998,442.587,1158.79,138.301,171.832,1140.19,-80.563,344.19,1206.28,-69.3333,238.99,1196.74,64.0601,504.637,871.561,55.9476,474.453,670.005,53.5447,467.627,465.913,60.0622,406.369,241.049,6.10588,351.981,193.804,219.698,415.766,196.766,57.531,117.544,849.578,8.65559,145.882,661.185,-81.039,134.725,470.589,-163.009,165.636,240.196,-234.184,216.731,225.656,-28.3095,172.016,192.566
150,0,128.305,444.399,1158.7,138.481,173.62,1140.79,-80.37,346.06,1206.19,-69.2078,240.862,1196.68,62.8246,505.839,871.381,54.4296,475.45,669.882,51.4535,468.175,465.701,57.1356,406.418,240.92,2.94439,351.944,193.756,216.604,415.685,196.632,59.4001,118.897,849.808,11.6815,146.55,661.12,-80.0073,134.995,471.261,-165.002,165.261,241.876,-236.497,216.211,228.241,-31.2133,171.919,192.426
151,0,128.532,446.19,1158.58,138.581,175.383,1141.38,-80.2509,347.901,1206.09,-69.1585,242.708,1196.61,61.6057,507.03,871.183,52.9197,476.447,669.742,49.3798,468.737,465.467,54.1942,406.486,240.776,-0.226773,351.923,193.697,213.496,415.623,196.489,61.3362,120.205,850.024,14.9089,147.147,661.032,-78.8286,135.23,471.949,-166.926,164.893,243.638,-238.723,215.7,230.987,-34.136,171.819,192.275
152,0,128.683,447.953,1158.45,138.598,177.116,1141.96,-80.2047,349.712,1205.97,-69.1863,244.526,1196.54,60.4099,508.204,870.967,51.4075,477.442,669.583,47.3125,469.314,465.213,51.2398,406.572,240.618,-3.40345,351.921,193.629,210.376,415.579,196.34,63.345,121.46,850.226,18.3476,147.673,660.922,-77.4902,135.434,472.663,-168.772,164.545,245.504,-240.842,215.22,233.921,-37.0775,171.721,192.121
153,0,128.762,449.682,1158.29,138.529,178.813,1142.53,-80.2299,351.495,1205.84,-69.2917,246.318,1196.46,59.2407,509.358,870.734,49.8821,478.434,669.407,45.2403,469.909,464.94,48.2737,406.677,240.451,-6.58245,351.939,193.553,207.249,415.553,196.187,65.4318,122.657,850.418,22.0064,148.127,660.795,-75.9791,135.612,473.416,-170.525,164.233,247.494,-242.835,214.794,237.073,-40.0354,171.627,191.98
154,0,128.773,451.371,1158.1,138.375,180.468,1143.08,-80.3249,353.251,1205.7,-69.475,248.082,1196.37,58.099,510.485,870.487,48.3323,479.421,669.214,43.1513,470.521,464.651,45.2971,406.8,240.277,-9.76163,351.978,193.471,204.116,415.545,196.034,67.6016,123.792,850.602,25.8925,148.508,660.657,-74.2827,135.769,474.221,-172.173,163.971,249.634,-244.68,214.443,240.472,-43.0044,171.543,191.87
155,0,128.719,453.014,1157.88,138.133,182.078,1143.62,-80.4877,354.979,1205.54,-69.736,249.82,1196.27,56.983,511.581,870.226,46.7471,480.4,669.005,41.0335,471.147,464.349,42.3103,406.937,240.099,-12.9398,352.036,193.384,200.98,415.552,195.882,69.8583,124.859,850.785,30.0108,148.817,660.517,-72.3895,135.909,475.092,-173.7,163.771,251.947,-246.353,214.19,244.143,-45.9759,171.471,191.813
156,0,128.604,454.606,1157.64,137.802,183.636,1144.13,-80.7163,356.679,1205.37,-70.0743,251.53,1196.16,55.8884,512.641,869.954,45.1158,481.366,668.783,38.8752,471.785,464.039,39.3131,407.086,239.921,-16.1166,352.113,193.293,197.843,415.574,195.733,72.2043,125.854,850.972,34.3637,149.055,660.383,-70.2892,136.037,476.044,-175.09,163.647,254.456,-247.833,214.055,248.111,-48.9368,171.412,191.833
157,0,128.431,456.141,1157.38,137.382,185.139,1144.63,-81.0084,358.354,1205.2,-70.4891,253.213,1196.04,54.8088,513.66,869.671,43.4283,482.316,668.55,36.6651,472.43,463.725,36.3046,407.243,239.746,-19.2924,352.206,193.2,194.706,415.608,195.589,74.6404,126.774,851.171,38.9506,149.224,660.265,-67.9739,136.157,477.09,-176.329,163.607,257.183,-249.096,214.054,252.391,-51.8693,171.37,191.957
158,0,128.204,457.615,1157.09,136.874,186.583,1145.12,-81.3615,360.001,1205.02,-70.9792,254.869,1195.92,53.7363,514.633,869.379,41.6755,483.244,668.307,34.3931,473.077,463.409,33.2834,407.402,239.577,-22.4679,352.313,193.107,191.568,415.651,195.449,77.165,127.615,851.388,43.7674,149.325,660.174,-65.4379,136.273,478.244,-177.397,163.661,260.144,-250.121,214.202,256.991,-54.7502,171.344,192.211
159,0,127.926,459.022,1156.77,136.278,187.964,1145.58,-81.7731,361.622,1204.84,-71.5431,256.496,1195.79,52.6614,515.557,869.08,39.8496,484.146,668.058,32.0502,473.72,463.098,30.2478,407.561,239.418,-25.6441,352.428,193.015,188.429,415.703,195.316,79.7741,128.376,851.633,48.8064,149.363,660.123,-62.6779,136.388,479.515,-178.279,163.813,263.35,-250.887,214.509,261.91,-57.5505,171.334,192.624
160,0,127.598,460.36,1156.43,135.594,189.279,1146.03,-82.2407,363.216,1204.66,-72.1791,258.095,1195.66,51.5744,516.427,868.774,37.944,485.014,667.804,29.629,474.35,462.793,27.1961,407.713,239.269,-28.8219,352.549,192.924,185.289,415.76,195.188,82.461,129.053,851.913,54.0559,149.34,660.122,-59.6939,136.505,480.911,-178.954,164.066,266.806,-251.374,214.981,267.134,-60.2348,171.338,193.22
161,0,127.223,461.624,1156.07,134.825,190.526,1146.46,-82.7615,364.781,1204.48,-72.8849,259.663,1195.53,50.4651,517.241,868.463,35.954,485.845,667.548,27.1242,474.962,462.499,24.1265,407.855,239.133,-32.0023,352.67,192.836,182.147,415.821,195.067,85.2162,129.646,852.236,59.5007,149.26,660.184,-56.4885,136.625,482.439,-179.405,164.419,270.506,-251.564,215.616,272.637,-62.7617,171.355,194.022
162,0,126.803,462.813,1155.69,133.972,191.702,1146.87,-83.3329,366.317,1204.32,-73.658,261.2,1195.4,49.3238,517.995,868.148,33.8765,486.632,667.293,24.5323,475.547,462.219,21.0378,407.983,239.009,-35.1858,352.787,192.751,179.001,415.883,194.95,88.0275,130.155,852.61,65.1213,149.13,660.321,-53.0668,136.751,484.098,-179.611,164.869,274.436,-251.442,216.411,278.38,-65.0836,171.38,195.047
163,0,126.34,463.922,1155.3,133.038,192.806,1147.28,-83.9519,367.822,1204.17,-74.4955,262.704,1195.29,48.1415,518.689,867.831,31.7104,487.369,667.039,21.8523,476.099,461.954,17.9292,408.094,238.899,-38.3727,352.895,192.67,175.851,415.945,194.839,90.8801,130.579,853.041,70.895,148.954,660.544,-49.4368,136.884,485.884,-179.55,165.41,278.571,-250.992,217.355,284.309,-67.1476,171.409,196.307
164,0,125.835,464.952,1154.88,132.026,193.836,1147.67,-84.6159,369.294,1204.04,-75.3942,264.172,1195.2,46.9101,519.321,867.511,29.4564,488.051,666.789,19.0854,476.61,461.707,14.8006,408.185,238.801,-41.563,352.99,192.592,172.695,416.006,194.732,93.7566,130.919,853.536,76.7954,148.737,660.864,-45.6082,137.023,487.792,-179.203,166.031,282.875,-250.202,218.433,290.359,-68.8958,171.437,197.805
165,0,125.29,465.901,1154.45,130.94,194.793,1148.05,-85.3217,370.73,1203.92,-76.3506,265.603,1195.12,45.6231,519.89,867.191,27.1174,488.675,666.545,16.2348,477.075,461.478,11.6525,408.255,238.714,-44.7561,353.069,192.517,169.533,416.063,194.627,96.6379,131.178,854.099,82.7932,148.487,661.29,-41.5926,137.169,489.806,-178.545,166.722,287.302,-249.06,219.626,296.453,-70.2667,171.458,199.538
166,0,124.705,466.769,1154.01,129.784,195.675,1148.42,-86.0666,372.128,1203.83,-77.3609,266.993,1195.07,44.2753,520.395,866.871,24.6977,489.234,666.308,13.3061,477.488,461.269,8.48612,408.303,238.637,-47.9513,353.128,192.445,166.364,416.114,194.524,99.503,131.358,854.733,88.8565,148.21,661.829,-37.4025,137.32,491.911,-177.554,167.469,291.796,-247.555,220.911,302.502,-71.1963,171.467,201.491
167,0,124.082,467.555,1153.56,128.562,196.483,1148.79,-86.8475,373.484,1203.77,-78.4207,268.341,1195.05,42.8633,520.838,866.551,22.2034,489.726,666.08,10.3066,477.844,461.08,5.30332,408.328,238.567,-51.1478,353.164,192.375,163.187,416.159,194.423,102.33,131.462,855.441,94.9513,147.913,662.488,-33.0511,137.476,494.085,-176.205,168.256,296.291,-245.677,222.264,308.412,-71.6198,171.458,203.644
168,0,123.422,468.261,1153.1,127.279,197.218,1149.16,-87.661,374.797,1203.74,-79.5258,269.642,1195.06,41.3852,521.219,866.234,19.6422,490.149,665.861,7.24495,478.139,460.911,2.10636,408.331,238.502,-54.3445,353.176,192.307,160.003,416.196,194.322,105.097,131.494,856.225,101.042,147.602,663.271,-28.5514,137.632,496.302,-174.475,169.069,300.713,-243.417,223.656,314.08,-71.4728,171.426,205.965
169,0,122.727,468.886,1152.63,125.94,197.88,1149.53,-88.5041,376.061,1203.74,-80.6713,270.894,1195.11,39.841,521.539,865.92,17.0228,490.499,665.652,4.13141,478.371,460.76,-1.1022,408.312,238.441,-57.5402,353.162,192.239,156.812,416.223,194.222,107.78,131.46,857.084,107.092,147.284,664.181,-23.9162,137.788,498.532,-172.338,169.89,304.985,-240.764,225.059,319.403,-70.6934,171.368,208.416
170,0,121.997,469.434,1152.16,124.552,198.471,1149.89,-89.3733,377.274,1203.78,-81.8522,272.094,1195.2,38.2319,521.799,865.61,14.355,490.776,665.453,0.976912,478.538,460.628,-4.3197,408.274,238.381,-60.7339,353.122,192.17,153.613,416.241,194.121,110.36,131.365,858.017,113.065,146.966,665.216,-19.1568,137.939,500.743,-169.77,170.705,309.024,-237.707,226.447,324.275,-69.2234,171.28,210.951
171,0,121.234,469.904,1151.68,123.121,198.993,1150.27,-90.265,378.433,1203.85,-83.0633,273.238,1195.33,36.5607,522.001,865.304,11.6491,490.979,665.266,-2.20709,478.638,460.513,-7.54356,408.217,238.32,-63.9249,353.056,192.1,150.406,416.248,194.021,112.815,131.214,859.022,118.924,146.653,666.374,-14.2836,138.083,502.902,-166.746,171.498,312.747,-234.236,227.794,328.597,-67.0101,171.161,213.521
172,0,120.44,470.299,1151.2,121.652,199.445,1150.64,-91.1754,379.534,1203.96,-84.2991,274.324,1195.51,34.8311,522.145,865.005,8.91585,491.108,665.09,-5.40902,478.672,460.415,-10.7714,408.142,238.258,-67.1125,352.965,192.028,147.193,416.243,193.921,115.126,131.014,860.096,124.632,146.352,667.652,-9.30519,138.216,504.973,-163.242,172.257,316.074,-230.335,229.076,332.274,-64.0073,171.011,216.072
173,0,119.618,470.621,1150.72,120.154,199.832,1151.02,-92.1006,380.575,1204.11,-85.5539,275.349,1195.74,33.048,522.234,864.712,6.16606,491.164,664.925,-8.61753,478.64,460.331,-14.0012,408.052,238.195,-70.2964,352.85,191.953,143.972,416.226,193.822,117.279,130.77,861.235,130.156,146.067,669.041,-4.22842,138.335,506.921,-159.234,172.969,318.927,-225.991,230.273,335.219,-60.1763,170.833,218.551
174,0,118.771,470.872,1150.24,118.633,200.153,1151.41,-93.0363,381.551,1204.29,-86.8217,276.31,1196.02,31.2169,522.268,864.426,3.41036,491.15,664.772,-11.8218,478.545,460.262,-17.2315,407.948,238.129,-73.477,352.713,191.873,140.744,416.197,193.725,119.259,130.488,862.433,135.461,145.804,670.532,0.941523,138.437,508.712,-154.698,173.626,321.24,-221.185,231.368,337.358,-55.4866,170.629,220.906
175,0,117.9,471.054,1149.76,117.098,200.412,1151.81,-93.9781,382.461,1204.51,-88.0965,277.204,1196.35,29.344,522.25,864.148,0.658892,491.066,664.63,-15.0118,478.388,460.206,-20.4609,407.83,238.061,-76.6546,352.554,191.79,137.508,416.157,193.63,121.056,130.175,863.684,140.516,145.568,672.114,6.20101,138.52,510.314,-149.612,174.219,322.95,-215.899,232.349,338.633,-49.9165,170.405,223.087
176,0,117.01,471.17,1149.27,115.554,200.609,1152.21,-94.9215,383.302,1204.77,-89.3719,278.029,1196.73,27.4357,522.18,863.878,-2.07883,490.916,664.499,-18.1787,478.173,460.161,-23.6887,407.701,237.992,-79.8304,352.377,191.701,134.265,416.105,193.539,122.661,129.835,864.982,145.293,145.36,673.773,11.5477,138.581,511.697,-143.954,174.745,324.011,-210.111,233.208,338.998,-43.4527,170.168,225.054
177,0,116.105,471.222,1148.79,114.012,200.746,1152.63,-95.8615,384.072,1205.06,-90.6417,278.784,1197.16,25.4989,522.059,863.617,-4.79413,490.704,664.379,-21.3145,477.902,460.128,-26.9146,407.561,237.922,-83.0058,352.184,191.608,131.015,416.042,193.451,124.072,129.472,866.319,149.766,145.187,675.493,16.98,138.62,512.839,-137.704,175.2,324.39,-203.799,233.94,338.427,-36.0909,169.926,226.77
178,0,115.189,471.211,1148.3,112.479,200.826,1153.05,-96.7929,384.769,1205.38,-91.8991,279.466,1197.63,23.5404,521.89,863.365,-7.47933,490.431,664.269,-24.413,477.582,460.105,-30.1384,407.411,237.852,-86.1828,351.976,191.511,127.758,415.97,193.367,125.286,129.092,867.686,153.911,145.049,677.256,22.4968,138.637,513.717,-130.841,175.584,324.065,-196.937,234.545,336.913,-27.8347,169.689,228.211
179,0,114.267,471.141,1147.81,110.963,200.849,1153.47,-97.7106,385.392,1205.72,-93.1375,280.074,1198.14,21.5672,521.671,863.122,-10.1278,490.104,664.169,-27.4689,477.214,460.092,-33.36,407.25,237.784,-89.3635,351.757,191.411,124.493,415.888,193.287,126.304,128.697,869.074,157.709,144.949,679.045,28.0966,138.632,514.318,-123.348,175.899,323.034,-189.502,235.026,334.464,-18.6961,169.466,229.361
180,0,113.344,471.011,1147.32,109.474,200.817,1153.9,-98.6091,385.939,1206.09,-94.3501,280.607,1198.7,19.5864,521.406,862.888,-12.7339,489.724,664.079,-30.4786,476.805,460.088,-36.5798,407.081,237.719,-92.5505,351.529,191.309,121.222,415.797,193.21,127.131,128.29,870.474,161.144,144.89,680.84,33.777,138.609,514.632,-115.211,176.147,321.31,-181.471,235.389,331.112,-8.69423,169.271,230.215
181,0,112.426,470.826,1146.83,108.02,200.732,1154.33,-99.4826,386.41,1206.48,-95.5302,281.064,1199.29,17.6047,521.094,862.662,-15.2932,489.297,663.997,-33.4397,476.36,460.092,-39.7977,406.902,237.658,-95.7463,351.293,191.208,117.945,415.7,193.137,127.773,127.873,871.875,164.202,144.873,682.619,39.534,138.57,514.657,-106.419,176.333,318.92,-172.822,235.641,326.903,2.14407,169.115,230.779
182,0,111.518,470.586,1146.34,106.61,200.594,1154.76,-100.326,386.803,1206.89,-96.6706,281.444,1199.9,15.6294,520.737,862.444,-17.8023,488.826,663.923,-36.3509,475.882,460.105,-43.0141,406.715,237.602,-98.9534,351.054,191.108,114.663,415.597,193.066,128.237,127.446,873.264,166.874,144.898,684.363,45.3612,138.519,514.397,-96.9637,176.464,315.906,-163.539,235.794,321.902,13.7849,169.011,231.068
183,0,110.628,470.293,1145.84,105.254,200.405,1155.18,-101.132,387.118,1207.31,-97.7647,281.747,1200.54,13.6674,520.335,862.233,-20.2586,488.315,663.856,-39.2124,475.377,460.124,-46.229,406.519,237.552,-102.174,350.812,191.013,111.376,415.49,192.997,128.533,127.012,874.63,169.155,144.967,686.049,51.2493,138.463,513.86,-86.8464,176.547,312.326,-153.61,235.857,316.19,26.1869,168.975,231.106
184,0,109.761,469.949,1145.33,103.961,200.166,1155.6,-101.897,387.355,1207.73,-98.8054,281.972,1201.2,11.726,519.89,862.027,-22.6604,487.768,663.796,-42.0252,474.85,460.151,-49.4426,406.316,237.509,-105.41,350.57,190.924,108.085,415.379,192.929,128.673,126.57,875.96,171.041,145.079,687.658,57.1856,138.406,513.061,-76.0748,176.59,308.248,-143.032,235.843,309.861,39.3012,169.019,230.923
185,0,108.925,469.554,1144.82,102.739,199.878,1156,-102.613,387.514,1208.15,-99.7859,282.118,1201.86,9.81241,519.402,861.826,-25.0067,487.188,663.74,-44.7909,474.305,460.185,-52.6552,406.105,237.474,-108.663,350.329,190.843,104.792,415.267,192.861,128.666,126.12,877.241,172.535,145.235,689.17,63.153,138.357,512.019,-64.6664,176.601,303.748,-131.812,235.765,303.019,53.0706,169.156,230.556
186,0,108.124,469.112,1144.3,101.597,199.542,1156.39,-103.276,387.595,1208.57,-100.7,282.186,1202.53,7.93414,518.873,861.627,-27.297,486.579,663.689,-47.512,473.747,460.224,-55.867,405.888,237.448,-111.934,350.092,190.772,101.497,415.153,192.793,128.527,125.663,878.458,173.642,145.432,690.566,69.1303,138.32,510.759,-52.6505,176.591,298.912,-119.969,235.636,295.777,67.4289,169.4,230.044
187,0,107.367,468.623,1143.77,100.545,199.159,1156.76,-103.881,387.596,1208.98,-101.54,282.175,1203.19,6.09889,518.305,861.429,-29.5309,485.944,663.641,-50.1913,473.178,460.268,-59.0785,405.666,237.431,-115.222,349.858,190.712,98.1999,415.04,192.724,128.268,125.2,879.597,174.37,145.67,691.828,75.0918,138.305,509.306,-40.0696,176.57,293.828,-107.537,235.468,288.255,82.3002,169.76,229.427
188,0,106.66,468.089,1143.23,99.5905,198.729,1157.11,-104.421,387.519,1209.37,-102.3,282.085,1203.83,4.31456,517.698,861.23,-31.7085,485.285,663.594,-52.8318,472.602,460.316,-62.2904,405.438,237.423,-118.526,349.628,190.664,94.9019,414.928,192.653,127.9,124.729,880.646,174.73,145.946,692.941,81.007,138.317,507.69,-26.9809,176.549,288.588,-94.5664,235.275,280.573,97.5982,170.246,228.746
189,0,106.008,467.512,1142.69,98.7423,198.255,1157.44,-104.892,387.362,1209.74,-102.975,281.916,1204.46,2.58918,517.054,861.027,-33.8293,484.604,663.548,-55.4364,472.021,460.368,-65.5034,405.206,237.426,-121.846,349.403,190.629,91.603,414.817,192.581,127.439,124.254,881.59,174.738,146.257,693.893,86.8414,138.362,505.941,-13.4576,176.539,283.281,-81.1237,235.07,272.85,113.225,170.862,228.034
190,0,105.418,466.894,1142.14,98.008,197.737,1157.73,-105.29,387.127,1210.08,-103.557,281.667,1205.06,0.930949,516.376,860.818,-35.8931,483.904,663.5,-58.0077,471.439,460.421,-68.7187,404.971,237.439,-125.18,349.183,190.604,88.3029,414.71,192.508,126.896,123.774,882.417,174.411,146.601,694.67,92.5564,138.447,504.087,0.410578,176.55,277.992,-67.2945,234.864,265.203,129.072,171.613,227.322
191,0,104.894,466.235,1141.58,97.3949,197.176,1157.99,-105.611,386.812,1210.39,-104.043,281.337,1205.62,-0.65191,515.665,860.602,-37.8987,483.185,663.45,-60.5477,470.855,460.475,-71.9374,404.733,237.463,-128.526,348.968,190.59,85.001,414.605,192.434,126.285,123.293,883.115,173.77,146.972,695.267,98.1101,138.575,502.16,14.5176,176.593,272.801,-53.1825,234.672,257.739,145.019,172.496,226.635
192,0,104.443,465.539,1141.02,96.9097,196.573,1158.22,-105.851,386.418,1210.67,-104.428,280.928,1206.15,-2.15122,514.924,860.375,-39.8448,482.449,663.396,-63.0577,470.272,460.529,-75.1606,404.495,237.498,-131.882,348.757,190.585,81.6964,414.504,192.359,125.621,122.812,883.674,172.837,147.365,695.676,103.459,138.75,500.185,28.7418,176.677,267.78,-38.9091,234.505,250.557,160.935,173.505,225.986
193,0,104.069,464.808,1140.45,96.5583,195.931,1158.41,-106.006,385.945,1210.9,-104.706,280.438,1206.62,-3.55897,514.155,860.136,-41.729,481.696,663.337,-65.5381,469.69,460.58,-78.3895,404.257,237.542,-135.245,348.55,190.585,78.3882,414.407,192.284,124.915,122.334,884.087,171.637,147.776,695.896,108.556,138.973,498.188,42.9479,176.812,262.987,-24.6112,234.373,243.742,176.68,174.631,225.383
194,0,103.774,464.043,1139.89,96.3459,195.249,1158.56,-106.075,385.392,1211.09,-104.874,279.866,1207.05,-4.86742,513.361,859.882,-43.5483,480.927,663.272,-67.988,469.108,460.628,-81.6248,404.019,237.596,-138.615,348.348,190.589,75.0749,414.314,192.208,124.184,121.863,884.349,170.197,148.196,695.926,113.358,139.244,496.191,56.9893,177.003,258.474,-10.4391,234.286,237.368,192.107,175.859,224.823
195,0,103.563,463.246,1139.32,96.2766,194.531,1158.67,-106.055,384.76,1211.24,-104.93,279.214,1207.42,-6.06929,512.544,859.613,-45.2985,480.142,663.198,-70.4054,468.526,460.671,-84.8671,403.783,237.658,-141.99,348.151,190.593,71.755,414.225,192.132,123.44,121.402,884.455,168.543,148.62,695.771,117.819,139.562,494.212,70.7114,177.257,254.278,3.44711,234.251,231.491,207.064,177.173,224.296
196,0,103.438,462.42,1138.76,96.3537,193.776,1158.74,-105.946,384.049,1211.33,-104.871,278.481,1207.74,-7.15783,511.709,859.327,-46.9748,479.342,663.116,-72.7869,467.943,460.708,-88.1164,403.55,237.726,-145.37,347.958,190.593,68.4273,414.141,192.056,122.698,120.956,884.407,166.705,149.038,695.437,121.899,139.922,492.267,83.9565,177.575,250.422,16.8822,234.273,226.152,221.4,178.552,223.785
197,0,103.4,461.567,1138.21,96.5794,192.988,1158.77,-105.747,383.259,1211.38,-104.696,277.668,1207.99,-8.12695,510.857,859.023,-48.5712,478.525,663.025,-75.1277,467.358,460.737,-91.3718,403.319,237.8,-148.753,347.771,190.587,65.0902,414.061,191.98,121.973,120.528,884.207,164.71,149.444,694.934,125.558,140.32,490.367,96.5674,177.957,246.921,29.7007,234.354,221.374,234.966,179.973,223.268
198,0,103.45,460.69,1137.68,96.9546,192.168,1158.76,-105.457,382.391,1211.37,-104.403,276.774,1208.18,-8.97134,509.993,858.703,-50.0807,477.691,662.924,-77.4218,466.768,460.759,-94.632,403.09,237.878,-152.139,347.588,190.572,61.7426,413.984,191.902,121.28,120.12,883.863,162.588,149.828,694.273,128.767,140.748,488.521,108.394,178.401,243.775,41.7425,234.493,217.167,247.623,181.411,222.717
199,0,103.588,459.789,1137.16,97.4792,191.316,1158.72,-105.079,381.445,1211.32,-103.994,275.8,1208.32,-9.68655,509.118,858.365,-51.4955,476.841,662.812,-79.6615,466.172,460.772,-97.8947,402.864,237.958,-155.53,347.412,190.547,58.3837,413.911,191.823,120.632,119.736,883.383,160.367,150.182,693.47,131.498,141.196,486.735,119.296,178.901,240.976,52.8587,234.687,213.524,259.243,182.843,222.106
200,0,103.813,458.868,1136.67,98.1518,190.436,1158.63,-104.613,380.423,1211.22,-103.469,274.747,1208.39,-10.269,508.237,858.012,-52.8069,475.973,662.691,-81.8383,465.568,460.776,-101.157,402.639,238.039,-158.922,347.24,190.509,55.0128,413.84,191.741,120.044,119.377,882.78,158.074,150.497,692.541,133.735,141.655,485.014,129.152,179.448,238.508,62.9172,234.927,210.425,269.717,184.244,221.411
201,0,104.124,457.928,1136.21,98.9696,189.529,1158.52,-104.061,379.325,1211.07,-102.831,273.617,1208.41,-10.716,507.351,857.646,-54.0053,475.089,662.561,-83.9421,464.954,460.773,-104.415,402.413,238.121,-162.317,347.072,190.46,51.63,413.77,191.656,119.529,119.043,882.069,155.733,150.765,691.505,135.467,142.112,483.359,137.862,180.032,236.347,71.8085,235.203,207.839,278.956,185.591,220.609
202,0,104.517,456.971,1135.78,99.9289,188.597,1158.38,-103.427,378.154,1210.89,-102.081,272.411,1208.38,-11.0259,506.464,857.269,-55.0805,474.187,662.423,-85.9623,464.327,460.763,-107.664,402.184,238.205,-165.713,346.908,190.403,48.2357,413.699,191.568,119.097,118.734,881.269,153.369,150.978,690.382,136.695,142.555,481.771,145.348,180.64,234.465,79.4493,235.503,205.726,286.899,186.865,219.687
203,0,104.99,455.997,1135.4,101.024,187.64,1158.21,-102.715,376.911,1210.66,-101.225,271.131,1208.3,-11.1976,505.577,856.885,-56.0219,473.268,662.277,-87.8873,463.687,460.749,-110.9,401.951,238.292,-169.108,346.744,190.341,44.8308,413.627,191.476,118.76,118.448,880.399,151.003,151.128,689.192,137.427,142.971,480.251,151.564,181.257,232.833,85.7867,235.812,204.04,293.511,188.048,218.637
204,0,105.538,455.01,1135.07,102.25,186.66,1158.03,-101.928,375.598,1210.41,-100.267,269.779,1208.18,-11.2309,504.693,856.498,-56.818,472.333,662.126,-89.705,463.032,460.732,-114.116,401.71,238.387,-172.5,346.578,190.281,41.417,413.55,191.381,118.523,118.18,879.479,148.655,151.21,687.957,137.68,143.346,478.8,156.493,181.868,231.418,90.8002,236.115,202.729,298.786,189.124,217.46
205,0,106.157,454.008,1134.79,103.598,185.66,1157.83,-101.071,374.218,1210.13,-99.2113,268.357,1208.03,-11.1264,503.812,856.114,-57.4574,471.383,661.973,-91.4032,462.361,460.717,-117.308,401.458,238.493,-175.885,346.407,190.233,37.9966,413.466,191.282,118.393,117.925,878.531,146.339,151.219,686.698,137.48,143.668,477.419,160.148,182.459,230.191,94.5017,236.396,201.741,302.748,190.085,216.167
206,0,106.841,452.994,1134.57,105.059,184.639,1157.61,-100.15,372.774,1209.83,-98.0654,266.869,1207.84,-10.8848,502.936,855.737,-57.9283,470.421,661.818,-92.9696,461.675,460.706,-120.469,401.194,238.618,-179.259,346.228,190.208,34.5723,413.373,191.181,118.369,117.676,877.575,144.069,151.149,685.436,136.86,143.924,476.11,162.57,183.015,229.123,96.9353,236.641,201.023,305.451,190.923,214.776
207,0,107.585,451.968,1134.42,106.625,183.599,1157.39,-99.17,371.268,1209.52,-96.8358,265.317,1207.64,-10.5073,502.066,855.373,-58.2188,469.449,661.666,-94.3919,460.973,460.705,-123.594,400.914,238.77,-182.618,346.036,190.223,31.1478,413.269,191.08,118.45,117.426,876.632,141.855,150.998,684.189,135.859,144.105,474.873,163.829,183.522,228.19,98.1741,236.837,200.526,306.972,191.635,213.312
208,0,108.381,450.929,1134.34,108.285,182.541,1157.17,-98.1381,369.703,1209.2,-95.5301,263.704,1207.42,-9.99548,501.202,855.03,-58.317,468.471,661.518,-95.6585,460.258,460.718,-126.676,400.618,238.96,-185.958,345.83,190.293,27.727,413.152,190.979,118.63,117.165,875.72,139.703,150.766,682.977,134.519,144.202,473.713,164.019,183.969,227.37,98.3164,236.973,200.205,307.411,192.223,211.808
209,0,109.223,449.879,1134.34,110.028,181.466,1156.95,-97.0609,368.083,1208.88,-94.1562,262.035,1207.19,-9.35053,500.343,854.712,-58.2112,467.49,661.378,-96.7583,459.532,460.751,-129.711,400.306,239.199,-189.273,345.606,190.439,24.3146,413.019,190.881,118.899,116.884,874.855,137.618,150.451,681.813,132.887,144.207,472.631,163.249,184.349,226.646,97.4808,237.041,200.017,306.887,192.69,210.296
210,0,110.103,448.816,1134.42,111.841,180.374,1156.74,-95.9452,366.411,1208.58,-92.7228,260.313,1206.96,-8.57365,499.489,854.427,-57.8897,466.512,661.249,-97.681,458.8,460.809,-132.692,399.978,239.5,-192.559,345.363,190.682,20.9158,412.869,190.787,119.242,116.572,874.051,135.599,150.056,680.714,131.008,144.118,471.631,161.645,184.655,226.003,95.8,237.037,199.928,305.527,193.044,208.813
211,0,111.015,447.742,1134.59,113.714,179.266,1156.54,-94.7985,364.69,1208.29,-91.2388,258.541,1206.74,-7.66564,498.639,854.181,-57.3414,465.542,661.134,-98.4174,458.066,460.897,-135.614,399.637,239.876,-195.811,345.103,191.043,17.5358,412.703,190.699,119.641,116.22,873.318,133.645,149.583,679.688,128.929,143.934,470.715,159.34,184.884,225.43,93.4146,236.962,199.908,303.468,193.296,207.391
212,0,111.95,446.654,1134.84,115.634,178.142,1156.35,-93.6282,362.924,1208.03,-89.7133,256.724,1206.53,-6.62683,497.794,853.98,-56.5552,464.588,661.036,-98.9592,457.335,461.021,-138.474,399.289,240.341,-199.026,344.828,191.547,14.1804,412.521,190.619,120.077,115.817,872.662,131.752,149.037,678.745,126.693,143.657,469.885,156.468,185.038,224.92,90.467,236.817,199.932,300.845,193.456,206.061
213,0,112.901,445.553,1135.18,117.587,177.003,1156.17,-92.442,361.117,1207.8,-88.1557,254.865,1206.34,-5.45698,496.953,853.83,-55.5206,463.656,660.957,-99.2995,456.616,461.186,-141.265,398.939,240.908,-202.201,344.543,192.214,10.8553,412.323,190.548,120.523,115.355,872.088,129.913,148.422,677.89,124.34,143.29,469.142,153.161,185.121,224.467,87.0952,236.61,199.983,297.789,193.539,204.848
214,0,113.859,444.438,1135.61,119.562,175.849,1156.01,-91.2475,359.272,1207.6,-86.5755,252.969,1206.18,-4.15517,496.114,853.735,-54.2276,462.755,660.9,-99.4323,455.916,461.397,-143.984,398.596,241.589,-205.332,344.255,193.066,7.56583,412.113,190.487,120.955,114.827,871.594,128.119,147.746,677.126,121.903,142.842,468.485,149.541,185.137,224.067,83.4281,236.35,200.045,294.423,193.559,203.771
215,0,114.819,443.309,1136.13,121.546,174.68,1155.86,-90.0524,357.393,1207.45,-84.982,251.04,1206.04,-2.71983,495.278,853.7,-52.6667,461.893,660.866,-99.3528,455.244,461.658,-146.626,398.269,242.396,-208.42,343.975,194.122,4.31708,411.893,190.436,121.346,114.227,871.177,126.361,147.014,676.453,119.414,142.322,467.912,145.72,185.098,223.715,79.5809,236.049,200.108,290.856,193.53,202.84
216,0,115.771,442.165,1136.73,123.526,173.497,1155.73,-88.8643,355.482,1207.33,-83.3847,249.082,1205.93,-1.14866,494.446,853.728,-50.8291,461.08,660.857,-99.0573,454.609,461.974,-149.188,397.97,243.34,-211.462,343.713,195.4,1.11336,411.669,190.397,121.669,113.551,870.831,124.63,146.235,675.868,116.894,141.74,467.419,141.795,185.012,223.409,75.6525,235.72,200.166,287.181,193.465,202.06
217,0,116.709,441.007,1137.42,125.492,172.3,1155.61,-87.6907,353.545,1207.27,-81.7926,247.099,1205.86,0.56124,493.619,853.822,-48.7064,460.326,660.875,-98.543,454.021,462.346,-151.665,397.711,244.428,-214.458,343.484,196.913,-2.04197,411.443,190.367,121.897,112.797,870.548,122.914,145.416,675.366,114.362,141.111,467.002,137.846,184.891,223.145,71.7234,235.379,200.214,283.476,193.378,201.429
218,0,117.625,439.834,1138.18,127.432,171.089,1155.51,-86.5387,351.584,1207.25,-80.2149,245.095,1205.83,2.4133,492.798,853.983,-46.2913,459.639,660.92,-97.8079,453.489,462.778,-154.054,397.504,245.668,-217.406,343.302,198.673,-5.14676,411.221,190.346,122.007,111.966,870.316,121.204,144.564,674.941,111.828,140.447,466.653,133.935,184.748,222.92,67.8554,235.038,200.249,279.8,193.28,200.937
219,0,118.514,438.646,1139.02,129.335,169.866,1155.42,-85.4153,349.604,1207.28,-78.66,243.075,1205.83,4.41136,491.986,854.211,-43.5771,459.031,660.993,-96.8505,453.025,463.273,-156.349,397.362,247.064,-220.306,343.183,200.688,-8.20028,411.009,190.332,121.978,111.06,870.123,119.489,143.688,674.585,109.301,139.761,466.365,130.109,184.593,222.73,64.092,234.713,200.271,276.196,193.18,200.57
220,0,119.368,437.444,1139.92,131.191,168.631,1155.33,-84.327,347.607,1207.36,-77.1362,241.043,1205.86,6.55945,491.186,854.507,-40.5583,458.51,661.093,-95.6698,452.636,463.831,-158.544,397.294,248.621,-223.152,343.142,202.964,-11.2034,410.81,190.324,121.794,110.084,869.959,117.761,142.795,674.288,106.784,139.067,466.129,126.396,184.437,222.571,60.4597,234.415,200.279,272.691,193.086,200.312
221,0,120.182,436.228,1140.89,132.993,167.384,1155.25,-83.28,345.597,1207.48,-75.6513,239.003,1205.93,8.86162,490.402,854.867,-37.2303,458.085,661.22,-94.2649,452.332,464.454,-160.633,397.312,250.341,-225.941,343.193,205.506,-14.1587,410.628,190.318,121.443,109.046,869.809,116.013,141.892,674.04,104.276,138.375,465.936,122.814,184.289,222.436,56.9701,234.153,200.273,269.299,193.002,200.143
222,0,120.951,435.001,1141.9,134.731,166.128,1155.17,-82.28,343.579,1207.65,-74.2125,236.958,1206.03,11.3216,489.64,855.289,-33.5896,457.766,661.375,-92.6349,452.121,465.144,-162.606,397.423,252.226,-228.664,343.349,208.316,-17.0705,410.465,190.311,120.918,107.952,869.663,114.239,140.983,673.832,101.776,137.696,465.776,119.364,184.156,222.323,53.6224,233.936,200.254,266.02,192.932,200.044
223,0,121.67,433.763,1142.96,136.399,164.864,1155.09,-81.3322,341.555,1207.85,-72.8264,234.914,1206.15,13.9427,488.905,855.77,-29.6344,457.559,661.556,-90.7789,452.009,465.901,-164.454,397.633,254.275,-231.308,343.619,211.397,-19.9449,410.322,190.3,120.22,106.813,869.511,112.435,140.076,673.653,99.2801,137.038,465.64,116.041,184.041,222.224,50.4062,233.767,200.222,262.849,192.876,199.993
224,0,122.335,432.516,1144.04,137.99,163.593,1155,-80.4412,339.53,1208.09,-71.4992,232.875,1206.3,16.7271,488.202,856.306,-25.3643,457.471,661.763,-88.6955,452.003,466.727,-166.162,397.945,256.489,-233.859,344.009,214.752,-22.7894,410.199,190.281,119.354,105.641,869.341,110.598,139.173,673.494,96.7851,136.408,465.52,112.832,183.949,222.135,47.3043,233.647,200.179,259.771,192.834,199.973
225,0,122.941,431.263,1145.15,139.5,162.318,1154.91,-79.6112,337.507,1208.35,-70.2363,230.844,1206.47,19.6761,487.54,856.892,-20.7805,457.509,661.996,-86.3832,452.106,467.624,-167.715,398.358,258.868,-236.295,344.521,218.384,-25.6128,410.093,190.249,118.331,104.445,869.149,108.728,138.28,673.346,94.2879,135.811,465.407,109.719,183.878,222.052,44.2952,233.577,200.124,256.769,192.805,199.968
226,0,123.486,430.007,1146.27,140.924,161.04,1154.8,-78.8454,335.49,1208.64,-69.0425,228.826,1206.65,22.7892,486.924,857.522,-15.8864,457.675,662.256,-83.8401,452.32,468.594,-169.094,398.87,261.412,-238.591,345.154,222.299,-28.4248,409.999,190.201,117.167,103.239,868.926,106.826,137.398,673.201,91.7861,135.247,465.295,106.682,183.828,221.969,41.3556,233.55,200.058,253.823,192.783,199.965
227,0,123.967,428.749,1147.39,142.259,159.762,1154.67,-78.1467,333.484,1208.93,-67.9218,226.825,1206.84,26.0643,486.361,858.193,-10.6871,457.972,662.543,-81.064,452.649,469.639,-170.28,399.474,264.122,-240.717,345.902,226.503,-31.2358,409.911,190.132,115.884,102.033,868.669,104.895,136.529,673.053,89.2788,134.719,465.176,103.699,183.794,221.884,38.4624,233.563,199.981,250.913,192.767,199.952
228,0,124.382,427.493,1148.49,143.503,158.487,1154.52,-77.5173,331.491,1209.24,-66.8775,224.845,1207.04,29.4969,485.859,858.898,-5.1904,458.401,662.859,-78.0526,453.09,470.762,-171.249,400.162,266.999,-242.638,346.753,231.004,-34.0556,409.822,190.04,114.504,100.839,868.377,102.938,135.677,672.895,86.7662,134.224,465.047,100.752,183.772,221.794,35.5943,233.605,199.895,248.021,192.752,199.923
229,0,124.73,426.244,1149.58,144.655,157.218,1154.36,-76.9587,329.517,1209.54,-65.9121,222.889,1207.23,33.0805,485.422,859.632,0.593827,458.959,663.205,-74.8039,453.641,471.968,-171.978,400.923,270.044,-244.317,347.693,235.811,-36.8933,409.724,189.925,113.055,99.6668,868.048,100.961,134.84,672.723,84.2499,133.762,464.904,97.8238,183.757,221.695,32.7327,233.67,199.8,245.132,192.735,199.873
230,0,125.009,425.004,1150.64,145.714,155.957,1154.17,-76.4717,327.563,1209.84,-65.0277,220.963,1207.42,36.8055,485.058,860.391,6.65298,459.644,663.584,-71.3162,454.299,473.26,-172.441,401.744,273.257,-245.714,348.702,240.933,-39.756,409.607,189.786,111.565,98.5255,867.684,98.9682,134.02,672.535,81.7326,133.328,464.744,94.8994,183.743,221.586,29.8626,233.747,199.697,242.231,192.711,199.8
231,0,125.22,423.776,1151.67,146.68,154.708,1153.96,-76.0565,325.635,1210.12,-64.2251,219.069,1207.6,40.6599,484.769,861.17,12.9718,460.45,664,-67.5885,455.059,474.643,-172.613,402.612,276.641,-246.785,349.757,246.378,-42.6482,409.462,189.629,110.06,97.4231,867.285,96.9668,133.217,672.328,79.2177,132.92,464.566,91.9686,183.726,221.467,26.9726,233.827,199.588,239.311,192.679,199.704
232,0,125.362,422.566,1152.65,147.555,153.474,1153.72,-75.7128,323.736,1210.38,-63.5048,217.21,1207.76,44.6289,484.558,861.965,19.5325,461.37,664.457,-63.6211,455.912,476.121,-172.473,403.51,280.196,-247.491,350.835,252.148,-45.5702,409.284,189.461,108.568,96.3662,866.855,94.9621,132.431,672.102,76.7093,132.534,464.37,89.0238,183.7,221.336,24.0554,233.902,199.473,236.364,192.637,199.586
233,0,125.437,421.376,1153.57,148.341,152.259,1153.46,-75.4394,321.868,1210.62,-62.8663,215.39,1207.91,48.6948,484.427,862.773,26.3144,462.394,664.958,-59.4156,456.851,477.697,-172,404.425,283.922,-247.792,351.909,258.244,-48.5174,409.065,189.295,107.111,95.36,866.397,92.9598,131.663,671.856,74.2112,132.167,464.156,86.0613,183.663,221.195,21.1069,233.965,199.355,233.389,192.584,199.449
234,0,125.444,420.211,1154.45,149.04,151.065,1153.17,-75.2349,320.035,1210.83,-62.3085,213.612,1208.03,52.8372,484.376,863.591,33.2944,463.51,665.51,-54.9756,457.865,479.377,-171.178,405.342,287.817,-247.655,352.951,264.659,-51.4787,408.804,189.147,105.71,94.4081,865.916,90.9649,130.912,671.593,71.7273,131.815,463.926,83.0796,183.61,221.044,18.1263,234.009,199.235,230.384,192.519,199.297
235,0,125.387,419.073,1155.26,149.655,149.896,1152.86,-75.0973,318.239,1211,-61.8297,211.878,1208.13,57.0335,484.402,864.416,40.4465,464.706,666.117,-50.3067,458.942,481.162,-169.996,406.247,291.878,-247.05,353.936,271.377,-54.4355,408.501,189.039,104.382,93.5128,865.416,88.9818,130.18,671.314,69.2605,131.476,463.681,80.0797,183.542,220.883,15.115,234.03,199.115,227.353,192.445,199.134
236,0,125.266,417.967,1156,150.19,148.756,1152.53,-75.0239,316.484,1211.14,-61.4274,210.19,1208.21,61.2587,484.502,865.247,47.7429,465.966,666.786,-45.4171,460.07,483.053,-168.448,407.127,296.098,-245.959,354.839,278.373,-57.3603,408.162,188.997,103.138,92.6752,864.901,87.0139,129.465,671.02,66.8129,131.149,463.424,77.0643,183.457,220.716,12.0764,234.025,198.997,224.298,192.362,198.963
237,0,125.084,416.895,1156.69,150.648,147.647,1152.17,-75.0119,314.77,1211.24,-61.0986,208.55,1208.26,65.4863,484.669,866.082,55.1532,467.274,667.52,-40.3175,461.235,485.051,-166.535,407.972,300.468,-244.368,355.637,285.61,-60.2161,407.795,189.05,101.984,91.8951,864.376,85.0636,128.77,670.715,64.3855,130.831,463.159,74.0369,183.356,220.543,9.01508,233.995,198.881,221.225,192.273,198.788
238,0,124.844,415.859,1157.31,151.033,146.572,1151.8,-75.058,313.101,1211.31,-60.8397,206.96,1208.29,69.6887,484.897,866.919,62.6454,468.612,668.327,-35.0211,462.423,487.152,-164.265,408.774,304.973,-242.277,356.312,293.037,-62.9557,407.416,189.23,100.923,91.1711,863.845,83.1324,128.095,670.402,61.9782,130.524,462.887,71.0015,183.241,220.368,5.93609,233.939,198.769,218.138,192.18,198.613
239,0,124.548,414.864,1157.86,151.35,145.534,1151.42,-75.1587,311.478,1211.34,-60.6468,205.419,1208.29,73.8374,485.177,867.758,70.1862,469.963,669.21,-29.5438,463.617,489.352,-161.651,409.526,309.593,-239.695,356.851,300.593,-65.5212,407.041,189.571,99.9506,90.501,863.313,81.2207,127.442,670.083,59.5896,130.226,462.613,67.9619,183.115,220.191,2.84469,233.861,198.662,215.042,192.085,198.441
240,0,124.2,413.91,1158.36,151.604,144.536,1151.02,-75.31,309.901,1211.33,-60.5155,203.93,1208.27,77.9042,485.499,868.598,77.7409,471.309,670.173,-23.9038,464.802,491.643,-158.71,410.225,314.304,-236.641,357.246,308.201,-67.8442,406.693,190.104,99.0603,89.882,862.783,79.328,126.812,669.762,57.2172,129.939,462.339,64.9213,182.98,220.015,-0.254224,233.764,198.56,211.942,191.991,198.273
241,0,123.802,412.999,1158.79,151.797,143.58,1150.6,-75.5081,308.371,1211.3,-60.4409,202.493,1208.23,81.8616,485.851,869.439,85.2744,472.63,671.22,-18.1215,465.964,494.014,-155.464,410.869,319.074,-233.144,357.493,315.776,-69.8472,406.398,190.859,98.2411,89.3103,862.26,77.4533,126.207,669.442,54.8576,129.663,462.069,61.8825,182.839,219.843,-3.3564,233.654,198.464,208.84,191.901,198.114
242,0,123.358,412.133,1159.18,151.937,142.667,1150.19,-75.7489,306.89,1211.23,-60.4183,201.107,1208.17,85.6832,486.223,870.28,92.7513,473.908,672.352,-12.2187,467.085,496.452,-151.938,411.458,323.865,-229.239,357.596,323.218,-71.4443,406.181,191.859,97.4793,88.782,861.748,75.5946,125.629,669.124,52.5069,129.399,461.806,58.847,182.695,219.677,-6.45843,233.535,198.373,205.74,191.815,197.963
243,0,122.872,411.312,1159.52,152.025,141.8,1149.76,-76.0282,305.458,1211.14,-60.4424,199.773,1208.09,89.345,486.601,871.12,100.136,475.127,673.571,-6.21867,468.153,498.941,-148.155,411.996,328.632,-224.968,357.565,330.424,-72.5439,406.07,193.118,96.759,88.2927,861.249,73.75,125.079,668.813,50.1608,129.149,461.553,55.8156,182.551,219.518,-9.55789,233.415,198.287,202.643,191.737,197.823
244,0,122.347,410.538,1159.81,152.068,140.981,1149.33,-76.3418,304.074,1211.04,-60.5081,198.489,1208.01,92.8253,486.975,871.961,107.395,476.269,674.874,-0.145149,469.153,501.46,-144.139,412.485,333.324,-220.377,357.413,337.282,-73.0509,406.092,194.643,96.0634,87.8381,860.768,71.917,124.56,668.509,47.8148,128.914,461.311,52.7878,182.411,219.368,-12.6533,233.298,198.206,199.549,191.666,197.694
245,0,121.786,409.809,1160.07,152.068,140.209,1148.91,-76.6858,302.739,1210.92,-60.6102,197.256,1207.91,96.1059,487.334,872.801,114.494,477.32,676.26,5.97805,470.073,503.988,-139.908,412.933,337.883,-215.511,357.161,343.681,-72.8705,406.27,196.428,95.3754,87.4139,860.308,70.0933,124.073,668.215,45.4651,128.695,461.083,49.7629,182.276,219.229,-15.7443,233.189,198.128,196.458,191.604,197.576
246,0,121.193,409.126,1160.3,152.03,139.487,1148.48,-77.0559,301.453,1210.8,-60.7435,196.073,1207.81,99.172,487.666,873.642,121.402,478.267,677.725,12.1276,470.902,506.5,-135.479,413.345,342.247,-210.413,356.83,349.509,-71.9114,406.622,198.454,94.6783,87.0161,859.871,68.2769,123.62,667.932,43.1081,128.494,460.87,46.7392,182.148,219.101,-18.8312,233.092,198.053,193.37,191.551,197.469
247,0,120.572,408.489,1160.51,151.957,138.814,1148.06,-77.4484,300.216,1210.68,-60.9032,194.939,1207.72,102.013,487.962,874.482,128.087,479.099,679.263,18.2815,471.633,508.971,-130.858,413.727,346.35,-205.123,356.448,354.663,-70.0897,407.162,200.691,93.9568,86.6409,859.459,66.4658,123.203,667.66,40.7413,128.311,460.674,43.7148,182.029,218.984,-21.915,233.012,197.982,190.281,191.506,197.372
248,0,119.926,407.896,1160.7,151.853,138.191,1147.64,-77.8595,299.027,1210.57,-61.0846,193.854,1207.62,104.622,488.215,875.323,134.523,479.808,680.866,24.419,472.259,511.373,-126.05,414.088,350.124,-199.672,356.042,359.044,-67.3324,407.897,203.096,93.1971,86.2853,859.075,64.6587,122.822,667.402,38.363,128.147,460.495,40.6876,181.919,218.88,-24.9973,232.949,197.914,187.192,191.469,197.284
249,0,119.259,407.346,1160.88,151.72,137.617,1147.22,-78.2856,297.887,1210.46,-61.2831,192.816,1207.53,106.997,488.419,876.166,140.684,480.387,682.526,30.5217,472.776,513.678,-121.05,414.433,353.5,-194.083,355.638,362.571,-63.5812,408.827,205.618,92.3882,85.9469,858.72,62.8546,122.48,667.156,35.9727,128.003,460.333,37.6557,181.819,218.787,-28.0799,232.905,197.848,184.1,191.44,197.204
250,0,118.575,406.839,1161.06,151.561,137.093,1146.81,-78.7232,296.796,1210.38,-61.4948,191.826,1207.46,109.139,488.569,877.011,146.546,480.833,684.231,36.5735,473.183,515.858,-115.846,414.769,356.413,-188.367,355.263,365.172,-58.7949,409.942,208.197,91.5211,85.6243,858.393,61.0533,122.176,666.924,33.5712,127.879,460.189,34.6173,181.729,218.706,-31.1648,232.879,197.785,181.003,191.417,197.13
251,0,117.876,406.373,1161.24,151.379,136.619,1146.41,-79.1691,295.753,1210.33,-61.7157,190.884,1207.4,111.054,488.664,877.859,152.09,481.143,685.971,42.5607,473.482,517.886,-110.423,415.1,358.803,-182.526,354.94,366.798,-52.9515,411.228,210.768,90.5899,85.3166,858.097,59.2546,121.911,666.704,31.1599,127.776,460.061,31.5709,181.649,218.635,-34.254,232.87,197.726,177.901,191.399,197.061
252,0,117.168,405.946,1161.43,151.176,136.192,1146.02,-79.6201,294.76,1210.3,-61.9426,189.988,1207.35,112.75,488.702,878.712,157.297,481.321,687.731,48.4725,473.675,519.736,-104.76,415.432,360.615,-176.549,354.69,367.414,-46.0492,412.663,213.264,89.5912,85.024,857.828,57.4591,121.686,666.497,28.7416,127.692,459.949,28.5157,181.578,218.574,-37.349,232.876,197.671,174.791,191.386,196.994
253,0,116.453,405.558,1161.63,150.953,135.813,1145.63,-80.0734,293.817,1210.3,-62.1724,189.141,1207.33,114.241,488.686,879.57,162.153,481.368,689.498,54.3006,473.77,521.385,-98.8324,415.766,361.804,-170.416,354.526,367.007,-38.1064,414.218,215.621,88.5241,84.7478,857.588,55.6676,121.499,666.302,26.3194,127.629,459.851,25.451,181.516,218.521,-40.4513,232.895,197.619,171.673,191.375,196.929
254,0,115.736,405.207,1161.84,150.711,135.481,1145.24,-80.5261,292.926,1210.34,-62.4025,188.341,1207.33,115.54,488.62,880.434,166.645,481.291,691.256,60.0391,473.774,522.812,-92.6149,416.104,362.338,-164.097,354.46,365.583,-29.1607,415.864,217.781,87.3904,84.4897,857.374,53.8811,121.351,666.117,23.897,127.586,459.766,22.3767,181.461,218.476,-43.5619,232.923,197.572,168.547,191.367,196.862
255,0,115.019,404.891,1162.06,150.454,135.194,1144.86,-80.9756,292.086,1210.42,-62.6309,187.591,1207.35,116.664,488.507,881.305,170.764,481.097,692.989,65.6844,473.697,524,-86.0815,416.448,362.195,-157.555,354.495,363.165,-19.2668,417.566,219.694,86.1938,84.2523,857.183,52.1005,121.241,665.943,21.4783,127.563,459.693,19.2931,181.414,218.437,-46.6813,232.958,197.529,165.413,191.359,196.794
256,0,114.309,404.61,1162.31,150.18,134.951,1144.49,-81.4192,291.3,1210.54,-62.8554,186.89,1207.39,117.629,488.354,882.182,174.503,480.796,694.682,71.2346,473.55,524.935,-79.2079,416.796,361.368,-150.747,354.631,359.795,-8.4936,419.291,221.322,84.9394,84.0391,857.013,50.3269,121.168,665.777,19.0669,127.559,459.63,16.2006,181.372,218.403,-49.8097,232.998,197.492,162.27,191.352,196.723
257,0,113.608,404.362,1162.56,149.893,134.751,1144.11,-81.8545,290.57,1210.7,-63.0748,186.242,1207.45,118.453,488.17,883.064,177.857,480.397,696.317,76.6895,473.346,525.607,-71.9718,417.146,359.865,-143.627,354.862,355.53,3.07885,421.008,222.639,83.6342,83.8537,856.86,48.561,121.131,665.62,16.6663,127.575,459.575,13.1001,181.336,218.373,-52.9468,233.039,197.458,159.119,191.343,196.648
258,0,112.921,404.148,1162.84,149.592,134.592,1143.74,-82.2789,289.897,1210.9,-63.2877,185.646,1207.54,119.153,487.962,883.95,180.823,479.912,697.88,82.0494,473.096,526.011,-64.3548,417.498,357.704,-136.151,355.178,350.439,15.3632,422.687,223.635,82.2858,83.7002,856.722,46.8033,121.128,665.47,14.279,127.61,459.528,9.99226,181.305,218.348,-56.092,233.08,197.428,155.961,191.333,196.569
259,0,112.253,403.966,1163.13,149.278,134.473,1143.36,-82.69,289.284,1211.14,-63.4932,185.107,1207.64,119.743,487.74,884.836,183.402,479.354,699.352,87.3152,472.815,526.147,-56.3429,417.849,354.922,-128.273,355.566,344.603,28.2683,424.304,224.313,80.9025,83.5827,856.595,45.0539,121.158,665.326,11.9071,127.662,459.486,6.87808,181.278,218.325,-59.2447,233.12,197.4,152.796,191.321,196.486
260,0,111.608,403.816,1163.42,148.953,134.393,1142.98,-83.0854,288.734,1211.41,-63.6905,184.625,1207.77,120.239,487.513,885.72,185.594,478.733,700.72,92.4878,472.514,526.018,-47.9271,418.198,351.563,-119.956,356.013,338.112,41.7025,425.84,224.693,79.4927,83.5054,856.475,43.3123,121.219,665.187,9.55144,127.732,459.449,3.75832,181.256,218.305,-62.4038,233.157,197.374,149.624,191.307,196.401
261,0,110.992,403.697,1163.73,148.618,134.351,1142.59,-83.4625,288.248,1211.71,-63.879,184.203,1207.91,120.653,487.289,886.595,187.404,478.064,701.969,97.567,472.205,525.631,-39.1044,418.543,347.685,-111.166,356.504,331.06,55.5766,427.28,224.802,78.065,83.4724,856.358,41.5778,121.309,665.053,7.21208,127.82,459.415,0.63367,181.236,218.286,-65.5685,233.19,197.349,146.445,191.29,196.312
262,0,110.409,403.611,1164.03,148.273,134.345,1142.2,-83.8188,287.83,1212.03,-64.0581,183.845,1208.06,120.992,487.077,887.455,188.837,477.357,703.086,102.552,471.898,525,-29.8781,418.885,343.354,-101.881,357.025,323.548,69.8057,428.616,224.683,76.6275,83.4873,856.242,39.8492,121.428,664.923,4.88799,127.923,459.383,-2.49535,181.22,218.27,-68.7379,233.219,197.322,143.261,191.27,196.221
263,0,109.865,403.557,1164.34,147.92,134.374,1141.8,-84.1517,287.483,1212.38,-64.2274,183.552,1208.22,121.264,486.886,888.291,189.9,476.623,704.057,107.439,471.603,524.138,-20.2585,419.224,338.642,-92.0883,357.565,315.678,84.3104,429.843,224.381,75.188,83.5534,856.122,38.1247,121.574,664.795,2.57719,128.041,459.352,-5.62841,181.206,218.254,-71.9114,233.245,197.293,140.072,191.246,196.129
264,0,109.366,403.537,1164.64,147.56,134.437,1141.39,-84.4585,287.209,1212.75,-64.3865,183.328,1208.39,121.473,486.722,889.096,190.602,475.875,704.873,112.224,471.327,523.064,-10.2635,419.563,333.628,-81.7876,358.115,307.552,99.0171,430.961,223.948,73.7537,83.6735,855.995,36.4025,121.744,664.669,0.276897,128.174,459.322,-8.76541,181.193,218.24,-75.0883,233.268,197.259,136.877,191.22,196.037
265,0,108.916,403.55,1164.92,147.195,134.534,1140.97,-84.7365,287.011,1213.12,-64.5347,183.175,1208.55,121.62,486.591,889.858,190.952,475.122,705.526,116.9,471.077,521.8,0.0808483,419.904,328.39,-70.9931,358.671,299.272,113.857,431.973,223.436,72.3311,83.8496,855.86,34.6807,121.938,664.544,-2.0164,128.319,459.291,-11.9065,181.183,218.227,-78.2687,233.287,197.221,133.677,191.19,195.945
266,0,108.521,403.598,1165.19,146.827,134.663,1140.54,-84.9828,286.893,1213.5,-64.6716,183.097,1208.72,121.702,486.498,890.567,190.963,474.372,706.007,121.455,470.857,520.367,10.7393,420.252,323.011,-59.7341,359.23,290.937,128.767,432.883,222.894,70.926,84.0833,855.712,32.9571,122.154,664.419,-4.30669,128.477,459.259,-15.0521,181.174,218.214,-81.4526,233.303,197.176,130.472,191.156,195.853
267,0,108.187,403.682,1165.44,146.457,134.823,1140.1,-85.1947,286.857,1213.87,-64.7964,183.096,1208.87,121.717,486.448,891.211,190.647,473.633,706.312,125.878,470.67,518.789,21.6671,420.611,317.567,-48.0557,359.797,282.642,143.683,433.696,222.366,69.5436,84.3754,855.55,31.23,122.392,664.294,-6.59826,128.647,459.226,-18.2027,181.165,218.202,-84.6408,233.317,197.124,127.261,191.119,195.763
268,0,107.919,403.803,1165.65,146.088,135.015,1139.64,-85.3692,286.905,1214.23,-64.9083,183.174,1209.01,121.66,486.441,891.779,190.019,472.913,706.438,130.152,470.516,517.09,32.809,420.986,312.135,-36.0198,360.374,274.48,158.543,434.417,221.887,68.1885,84.7261,855.37,29.498,122.651,664.167,-8.89543,128.826,459.19,-21.3595,181.156,218.19,-87.8342,233.328,197.065,124.044,191.077,195.673
269,0,107.722,403.962,1165.83,145.722,135.237,1139.17,-85.5035,287.04,1214.58,-65.0063,183.335,1209.13,121.524,486.481,892.258,189.094,472.218,706.384,134.259,470.396,515.293,44.0991,421.38,306.783,-23.7048,360.97,266.536,173.281,435.05,221.483,66.8648,85.1349,855.171,27.7602,122.93,664.038,-11.2023,129.016,459.152,-24.5234,181.148,218.178,-91.0343,233.337,196.999,120.82,191.032,195.584
270,0,107.602,404.161,1165.98,145.363,135.491,1138.69,-85.5947,287.264,1214.9,-65.0892,183.581,1209.23,121.303,486.566,892.64,187.888,471.553,706.151,138.177,470.309,513.423,55.4604,421.797,301.576,-11.2055,361.591,258.886,187.826,435.598,221.169,65.5762,85.6007,854.951,26.0166,123.229,663.904,-13.5226,129.215,459.111,-27.6959,181.139,218.165,-94.2426,233.345,196.925,117.588,190.983,195.496
271,0,107.562,404.401,1166.08,145.012,135.774,1138.19,-85.64,287.579,1215.19,-65.1558,183.912,1209.31,120.992,486.696,892.912,186.42,470.921,705.744,141.882,470.251,511.499,66.8053,422.238,296.567,1.36778,362.245,251.602,202.101,436.063,220.948,64.3259,86.1217,854.708,24.2681,123.548,663.766,-15.8592,129.424,459.067,-30.8788,181.129,218.153,-97.4613,233.35,196.846,114.347,190.929,195.408
272,0,107.608,404.683,1166.14,144.672,136.089,1137.69,-85.6368,287.986,1215.45,-65.2045,184.332,1209.35,120.586,486.87,893.067,184.708,470.328,705.168,145.348,470.219,509.542,78.0365,422.703,291.801,13.8915,362.937,244.743,216.022,436.444,220.811,63.1171,86.6958,854.44,22.5167,123.888,663.621,-18.2143,129.641,459.018,-34.0737,181.119,218.139,-100.693,233.354,196.762,111.096,190.87,195.32
273,0,107.742,405.009,1166.15,144.347,136.434,1137.17,-85.5825,288.487,1215.66,-65.2339,184.841,1209.37,120.081,487.086,893.099,182.77,469.777,704.429,148.549,470.211,507.568,89.0479,423.189,287.316,26.2308,363.67,238.357,229.495,436.742,220.74,61.9528,87.3202,854.145,20.7656,124.25,663.469,-20.5887,129.869,458.966,-37.2825,181.109,218.125,-103.939,233.357,196.673,107.833,190.806,195.232
274,0,107.97,405.379,1166.11,144.04,136.81,1136.65,-85.4746,289.083,1215.84,-65.2421,185.44,1209.34,119.476,487.34,893.003,180.626,469.27,703.539,151.456,470.221,505.594,99.7272,423.692,283.135,38.243,364.445,232.48,242.422,436.957,220.709,60.836,87.9916,853.821,19.0192,124.635,663.307,-22.9822,130.107,458.91,-40.5074,181.099,218.11,-107.202,233.359,196.581,104.555,190.736,195.143
275,0,108.292,405.795,1166.02,143.755,137.218,1136.11,-85.3113,289.772,1215.96,-65.2273,186.129,1209.28,118.772,487.63,892.777,178.297,468.81,702.509,154.041,470.246,503.631,109.958,424.203,279.275,49.7815,365.257,227.136,254.699,437.088,220.683,59.7696,88.7067,853.469,17.2835,125.045,663.135,-25.3929,130.356,458.849,-43.7501,181.089,218.096,-110.484,233.36,196.487,101.262,190.66,195.054
276,0,108.712,406.257,1165.88,143.493,137.659,1135.58,-85.0905,290.557,1216.03,-65.1877,186.909,1209.17,117.975,487.954,892.421,175.801,468.4,701.35,156.278,470.284,501.688,119.626,424.714,275.741,60.7006,366.098,222.336,266.22,437.138,220.628,58.7568,89.4617,853.087,15.5656,125.48,662.952,-27.8177,130.619,458.784,-47.0123,181.082,218.081,-113.787,233.361,196.393,97.9499,190.579,194.963
277,0,109.23,406.766,1165.69,143.259,138.132,1135.04,-84.8107,291.435,1216.06,-65.1213,187.78,1209.03,117.092,488.308,891.939,173.16,468.044,700.079,158.142,470.33,499.774,128.615,425.213,272.528,70.8601,366.957,218.075,276.881,437.11,220.506,57.8008,90.2527,852.674,13.8739,125.945,662.756,-30.2516,130.897,458.715,-50.2955,181.078,218.066,-117.112,233.362,196.298,94.6179,190.492,194.87
278,0,109.848,407.322,1165.45,143.055,138.639,1134.51,-84.4709,292.407,1216.03,-65.0264,188.74,1208.84,116.133,488.691,891.337,170.392,467.742,698.709,159.61,470.383,497.895,136.823,425.689,269.627,80.1311,367.819,214.338,286.585,437.01,220.282,56.9049,91.0758,852.232,12.2181,126.44,662.546,-32.6884,131.191,458.642,-53.6006,181.077,218.053,-120.461,233.365,196.206,91.2641,190.399,194.776
279,0,110.565,407.926,1165.17,142.885,139.18,1133.98,-84.0702,293.471,1215.95,-64.9009,189.789,1208.62,115.111,489.099,890.623,167.518,467.499,697.257,160.665,470.441,496.053,144.155,426.128,267.016,88.401,368.67,211.099,295.247,436.844,219.925,56.0726,91.927,851.76,10.6085,126.969,662.322,-35.1203,131.504,458.566,-56.9279,181.082,218.042,-123.833,233.37,196.115,87.8874,190.301,194.681
280,0,111.38,408.579,1164.84,142.75,139.757,1133.46,-83.6082,294.624,1215.81,-64.7433,190.924,1208.35,114.042,489.531,889.81,164.555,467.316,695.741,161.294,470.506,494.251,150.533,426.519,264.673,95.5784,369.49,208.32,302.796,436.625,219.412,55.3073,92.8026,851.26,9.05647,127.533,662.083,-37.5382,131.838,458.487,-60.277,181.094,218.035,-127.227,233.379,196.029,84.4872,190.2,194.584
281,0,112.292,409.279,1164.48,142.654,140.369,1132.96,-83.0852,295.866,1215.64,-64.5519,192.145,1208.05,112.945,489.988,888.909,161.523,467.197,694.177,161.488,470.577,492.491,155.899,426.851,262.57,101.597,370.265,205.958,309.183,436.364,218.729,54.6126,93.6991,850.735,7.57373,128.136,661.829,-39.9319,132.196,458.407,-63.6466,181.114,218.032,-130.644,233.392,195.949,81.0636,190.096,194.485
282,0,113.297,410.027,1164.08,142.599,141.02,1132.47,-82.5016,297.193,1215.41,-64.3251,193.448,1207.71,111.836,490.467,887.938,158.438,467.144,692.583,161.248,470.656,490.774,160.217,427.115,260.676,106.421,370.978,203.965,314.38,436.076,217.87,53.9918,94.6132,850.189,6.17215,128.779,661.562,-42.2902,132.579,458.327,-67.0345,181.144,218.036,-134.079,233.409,195.878,77.6178,189.991,194.384
283,0,114.394,410.823,1163.66,142.587,141.708,1132,-81.8585,298.602,1215.15,-64.0619,194.831,1207.33,110.737,490.969,886.911,155.318,467.158,690.976,160.578,470.747,489.1,163.474,427.306,258.963,110.041,371.616,202.29,318.386,435.777,216.84,53.4482,95.5421,849.624,4.86342,129.466,661.283,-44.6014,132.989,458.249,-70.4376,181.184,218.049,-137.532,233.433,195.817,74.1517,189.886,194.281
284,0,115.577,411.666,1163.21,142.619,142.435,1131.55,-81.1574,300.091,1214.85,-63.7611,196.292,1206.93,109.667,491.494,885.848,152.177,467.243,689.373,159.491,470.853,487.471,165.684,427.421,257.403,112.482,372.17,200.886,321.228,435.482,215.654,52.9846,96.4836,849.048,3.6587,130.198,660.993,-46.8536,133.428,458.175,-73.8516,181.235,218.074,-140.996,233.462,195.772,70.6683,189.783,194.176
285,0,116.842,412.556,1162.75,142.697,143.203,1131.13,-80.4002,301.656,1214.52,-63.422,197.826,1206.51,108.643,492.044,884.765,149.031,467.4,687.789,158.009,470.978,485.89,166.881,427.461,255.969,113.797,372.634,199.706,322.956,435.208,214.335,52.6037,97.4359,848.465,2.56826,130.976,660.695,-49.0347,133.898,458.109,-77.2711,181.299,218.114,-144.469,233.499,195.748,67.1716,189.686,194.069
286,0,118.183,413.492,1162.28,142.822,144.011,1130.75,-79.5895,303.293,1214.16,-63.0441,199.431,1206.06,107.684,492.619,883.681,145.893,467.629,686.241,156.156,471.127,484.358,167.128,427.43,254.64,114.067,373.006,198.708,323.648,434.969,212.912,52.3073,98.3978,847.883,1.6011,131.801,660.392,-51.1335,134.398,458.054,-80.6901,181.376,218.175,-147.943,233.541,195.75,63.6666,189.595,193.96
287,0,119.595,414.474,1161.8,142.994,144.861,1130.4,-78.728,304.998,1213.78,-62.6272,201.102,1205.6,106.802,493.221,882.613,142.775,467.931,684.742,153.968,471.306,482.88,166.502,427.338,253.4,113.393,373.288,197.858,323.398,434.777,211.423,52.0968,99.3688,847.308,0.764608,132.675,660.088,-53.1394,134.929,458.014,-84.1014,181.465,218.261,-151.413,233.59,195.786,60.1591,189.513,193.85
288,0,121.07,415.502,1161.33,143.215,145.753,1130.09,-77.8191,306.767,1213.4,-62.1714,202.836,1205.13,106.009,493.852,881.577,139.69,468.305,683.304,151.48,471.518,481.459,165.099,427.193,252.237,111.895,373.486,197.128,322.321,434.641,209.904,51.9728,100.349,846.751,0.0642911,133.597,659.789,-55.0432,135.491,457.995,-87.4974,181.566,218.377,-154.873,233.645,195.865,56.6553,189.441,193.739
289,0,122.602,416.574,1160.87,143.483,146.688,1129.82,-76.8663,308.596,1213.01,-61.6773,204.629,1204.66,105.312,494.512,880.586,136.647,468.75,681.939,148.737,471.769,480.1,163.028,427.009,251.142,109.703,373.61,196.497,320.539,434.567,208.394,51.9351,101.339,846.218,-0.496523,134.566,659.498,-56.8371,136.083,458.002,-90.8698,181.679,218.53,-158.314,233.706,195.996,53.1623,189.382,193.627
290,0,124.182,417.691,1160.42,143.798,147.667,1129.59,-75.8735,310.481,1212.61,-61.1455,206.477,1204.19,104.717,495.203,879.654,133.656,469.265,680.655,145.783,472.06,478.81,160.403,426.8,250.111,106.954,373.671,195.95,318.18,434.555,206.93,51.9826,102.341,845.718,-0.916869,135.581,659.222,-58.5157,136.703,458.041,-94.2103,181.802,218.727,-161.729,233.77,196.19,49.6869,189.338,193.516
291,0,125.804,418.851,1159.99,144.161,148.69,1129.41,-74.8451,312.417,1212.23,-60.5771,208.374,1203.72,104.222,495.925,878.79,130.726,469.846,679.461,142.665,472.396,477.593,157.339,426.58,249.146,103.781,373.683,195.478,315.372,434.603,205.544,52.1134,103.356,845.26,-1.19828,136.64,658.968,-60.0754,137.348,458.119,-97.5104,181.932,218.975,-165.11,233.838,196.457,46.2362,189.308,193.407
292,0,127.459,420.054,1159.58,144.569,149.756,1129.28,-73.7854,314.398,1211.86,-59.9736,210.318,1203.27,103.824,496.681,878.001,127.863,470.49,678.361,139.429,472.776,476.455,153.951,426.364,248.247,100.309,373.658,195.076,312.238,434.706,204.264,52.3243,104.385,844.852,-1.34481,137.74,658.74,-61.5153,138.016,458.242,-100.762,182.07,219.281,-168.45,233.908,196.808,42.8168,189.294,193.3
293,0,129.139,421.3,1159.2,145.021,150.867,1129.21,-72.6992,316.422,1211.5,-59.3366,212.303,1202.84,103.515,497.469,877.293,125.074,471.192,677.36,136.12,473.203,475.401,150.343,426.163,247.418,96.6523,373.609,194.74,308.887,434.853,203.109,52.6116,105.433,844.501,-1.36305,138.877,658.547,-62.837,138.704,458.416,-103.958,182.211,219.653,-171.743,233.979,197.254,39.4346,189.295,193.196
294,0,130.836,422.587,1158.85,145.517,152.021,1129.18,-71.5912,318.483,1211.17,-58.6683,214.325,1202.42,103.286,498.29,876.666,122.364,471.948,676.46,132.78,473.673,474.433,146.611,425.987,246.662,92.9094,373.55,194.469,305.417,435.034,202.094,52.9704,106.5,844.214,-1.26194,140.047,658.392,-64.0448,139.407,458.649,-107.091,182.353,220.097,-174.98,234.048,197.805,36.0948,189.31,193.097
295,0,132.541,423.916,1158.54,146.053,153.22,1129.21,-70.4664,320.577,1210.86,-57.9709,216.38,1202.04,103.121,499.144,876.122,119.737,472.751,675.659,129.447,474.185,473.554,142.837,425.844,245.983,89.1597,373.49,194.263,301.908,435.234,201.223,53.395,107.59,843.996,-1.05257,141.245,658.283,-65.1454,140.121,458.946,-110.156,182.494,220.62,-178.157,234.114,198.469,32.8014,189.339,193.004
296,0,134.247,425.285,1158.26,146.628,154.461,1129.29,-69.3298,322.699,1210.59,-57.2471,218.462,1201.68,103.007,500.03,875.657,117.195,473.597,674.956,126.151,474.734,472.765,139.087,425.738,245.381,85.4642,373.436,194.118,298.424,435.439,200.497,53.8792,108.705,843.851,-0.747867,142.465,658.225,-66.1478,140.841,459.312,-113.149,182.629,221.224,-181.269,234.175,199.253,29.5571,189.379,192.918
297,0,135.946,426.694,1158.02,147.238,155.745,1129.42,-68.1863,324.844,1210.34,-56.4999,220.569,1201.35,102.926,500.947,875.267,114.74,474.48,674.349,122.921,475.317,472.065,135.414,425.672,244.858,81.8653,373.395,194.032,295.01,435.638,199.909,54.4159,109.846,843.781,-0.362175,143.703,658.221,-67.063,141.563,459.75,-116.067,182.756,221.915,-184.314,234.23,200.161,26.3635,189.428,192.84
298,0,137.63,428.141,1157.82,147.882,157.07,1129.6,-67.041,327.009,1210.13,-55.7323,222.695,1201.06,102.861,501.893,874.945,112.372,475.393,673.83,119.775,475.928,471.451,131.852,425.643,244.41,78.3879,373.369,193.999,291.696,435.818,199.446,54.9977,111.016,843.788,0.0891985,144.951,658.274,-67.9038,142.283,460.263,-118.909,182.872,222.693,-187.288,234.276,201.196,23.2207,189.483,192.771
299,0,139.293,429.626,1157.65,148.555,158.436,1129.83,-65.8987,329.188,1209.95,-54.9478,224.835,1200.81,102.795,502.868,874.684,110.091,476.33,673.395,116.728,476.561,470.919,128.423,425.649,244.034,75.0422,373.358,194.014,288.496,435.969,199.095,55.617,112.214,843.871,0.59054,146.203,658.387,-68.6838,142.995,460.852,-121.676,182.972,223.558,-190.193,234.311,202.355,20.1275,189.54,192.71
300,0,140.926,431.148,1157.52,149.254,159.841,1130.11,-64.7644,331.378,1209.81,-54.1502,226.987,1200.59,102.711,503.87,874.474,107.895,477.288,673.036,113.789,477.209,470.464,125.136,425.685,243.724,71.8262,373.361,194.068,285.413,436.085,198.838,56.266,113.441,844.026,1.12632,147.452,658.561,-69.4175,143.695,461.516,-124.37,183.056,224.507,-193.03,234.334,203.636,17.0817,189.597,192.66
301,0,142.525,432.705,1157.41,149.976,161.282,1130.44,-63.6428,333.574,1209.7,-53.3433,229.145,1200.41,102.593,504.896,874.308,105.78,478.259,672.745,110.959,477.868,470.077,121.989,425.743,243.472,68.7287,373.374,194.152,282.44,436.161,198.657,56.937,114.695,844.251,1.68179,148.691,658.793,-70.119,144.38,462.251,-126.995,183.12,225.535,-195.801,234.341,205.03,14.0798,189.651,192.621
302,0,144.082,434.295,1157.34,150.716,162.759,1130.8,-62.5385,335.772,1209.62,-52.5312,231.306,1200.26,102.429,505.945,874.176,103.744,479.24,672.514,108.236,478.53,469.751,118.97,425.817,243.27,65.7322,373.395,194.256,279.562,436.196,198.532,57.6227,115.975,844.539,2.24365,149.914,659.081,-70.8019,145.046,463.052,-129.556,183.161,226.637,-198.512,234.333,206.529,11.1178,189.698,192.592
303,0,145.594,435.916,1157.29,151.47,164.268,1131.2,-61.456,337.968,1209.57,-51.7185,233.465,1200.15,102.207,507.016,874.069,101.782,480.227,672.333,105.615,479.193,469.478,116.065,425.901,243.108,62.8159,373.418,194.372,276.761,436.193,198.448,58.3166,117.279,844.884,2.80062,151.113,659.421,-71.4782,145.69,463.912,-132.06,183.18,227.802,-201.167,234.306,208.12,8.19098,189.735,192.574
304,0,147.055,437.566,1157.26,152.232,165.807,1131.64,-60.3996,340.159,1209.54,-50.9095,235.62,1200.07,101.92,508.106,873.978,99.8902,481.217,672.193,103.087,479.85,469.247,113.252,425.989,242.979,59.9576,373.439,194.491,274.016,436.153,198.39,59.0126,118.602,845.277,3.34403,152.283,659.806,-72.158,146.31,464.822,-134.513,183.174,229.022,-203.774,234.261,209.788,5.29447,189.761,192.567
