Trajectories
100
,,Subj:LASI,,,Subj:RASI,,,Subj:LPSI,,,Subj:RPSI,,,Subj:LTHI,,,Subj:LKNE,,,Subj:LTIB,,,Subj:LANK,,,Subj:LHEE,,,Subj:LTOE,,,Subj:RTHI,,,Subj:RKNE,,,Subj:RTIB,,,Subj:RANK,,,Subj:RHEE,,,Subj:RTOE,,,
Frame,Sub Frame,X,Y,Z,X,Y,Z,X,Y,Z,X,Y,Z,X,Y,Z,X,Y,Z,X,Y,Z,X,Y,Z,X,Y,Z,X,Y,Z,X,Y,Z,X,Y,Z,X,Y,Z,X,Y,Z,X,Y,Z,X,Y,Z
,,mm,mm,mm,mm,mm,mm,mm,mm,mm,mm,mm,mm,mm,mm,mm,mm,mm,mm,mm,mm,mm,mm,mm,mm,mm,mm,mm,mm,mm,mm,mm,mm,mm,mm,mm,mm,mm,mm,mm,mm,mm,mm,mm,mm,mm,mm,mm,mm
1,0,127.422,402.121,1148.69,156.194,127.263,1144.29,-70.6642,290.191,1210.31,-53.6014,186.195,1210.54,120.01,476.665,872.752,146.929,465.658,672.855,41.0754,461.507,500.937,-111.223,406.69,341.697,-187.593,352.786,351.369,-52.5614,392.481,198.403,98.9706,70.345,861.411,73.5855,108.225,667.332,47.7455,112.466,461.261,49.645,166.034,219.752,-17.6468,215.822,197.548,196.103,181.442,197.576
2,0,126.552,400.854,1149.35,156.057,126.181,1144.2,-70.9287,288.697,1210.61,-53.8684,184.778,1210.62,122.257,476.036,873.886,154.977,465.461,676.586,49.033,461.322,504.989,-105.668,406.688,346.979,-182.133,352.008,356.131,-46.7346,394.119,203.243,98.1306,69.9132,861.186,71.7837,107.68,667.194,45.282,112.295,461.152,46.7196,165.981,219.686,-20.5831,215.829,197.526,193.185,181.607,197.373
3,0,125.701,399.649,1150.03,155.922,125.161,1144.09,-71.1953,287.247,1210.92,-54.1176,183.405,1210.71,124.317,475.418,875.004,162.492,465.199,680.133,56.8143,461.096,508.681,-99.6472,406.7,351.383,-176.216,351.356,359.728,-39.883,395.681,207.62,97.2779,69.5069,860.96,70.0175,107.178,667.057,42.8588,112.14,461.052,43.7959,165.929,219.63,-23.5255,215.831,197.515,190.262,181.756,197.182
4,0,124.869,398.506,1150.7,155.79,124.201,1143.97,-71.464,285.841,1211.25,-54.3492,182.073,1210.81,126.19,474.811,876.107,169.475,464.871,683.494,64.4194,460.829,512.013,-93.162,406.727,354.911,-169.842,350.83,362.161,-32.0094,397.165,211.533,96.4126,69.1259,860.736,68.2869,106.719,666.922,40.4758,112.001,460.963,40.8739,165.876,219.583,-26.4739,215.828,197.514,187.333,181.889,197.002
5,0,124.054,397.425,1151.39,155.659,123.304,1143.83,-71.7348,284.478,1211.59,-54.563,180.785,1210.91,127.878,474.214,877.195,175.924,464.477,686.67,71.8481,460.521,514.986,-86.2128,406.768,357.567,-163.011,350.429,363.436,-23.1223,398.572,214.984,95.5343,68.7701,860.512,66.5915,106.304,666.79,38.1325,111.879,460.884,37.9534,165.824,219.545,-29.4284,215.82,197.524,184.398,182.006,196.834
6,0,123.258,396.405,1152.07,155.53,122.467,1143.66,-72.0075,283.158,1211.95,-54.7593,179.539,1211.03,129.381,473.63,878.268,181.841,464.019,689.66,79.1,460.173,517.6,-78.8014,406.824,359.356,-155.722,350.151,363.563,-13.2388,399.897,217.978,94.6426,68.4395,860.288,64.9309,105.932,666.659,35.8283,111.773,460.815,35.034,165.771,219.516,-32.3889,215.807,197.544,181.458,182.107,196.677
7,0,122.481,395.448,1152.76,155.404,121.691,1143.49,-72.282,281.883,1212.32,-54.9379,178.337,1211.15,130.703,473.057,879.326,187.227,463.498,692.462,86.1747,459.785,519.857,-70.9315,406.893,360.29,-147.974,349.993,362.561,-2.38769,401.139,220.52,93.7366,68.1338,860.065,63.3039,105.602,666.53,33.5619,111.681,460.755,32.1152,165.719,219.495,-35.3556,215.79,197.572,178.511,182.192,196.531
8,0,121.723,394.552,1153.45,155.279,120.976,1143.29,-72.5579,280.651,1212.71,-55.0992,177.178,1211.27,131.848,472.498,880.37,192.083,462.914,695.076,93.071,459.361,521.759,-62.6087,406.974,360.387,-139.766,349.951,360.458,9.38885,402.292,222.622,92.8152,67.8525,859.842,61.709,105.314,666.402,31.3315,111.605,460.705,29.1963,165.666,219.482,-38.3284,215.768,197.608,175.557,182.261,196.396
9,0,120.985,393.718,1154.15,155.156,120.322,1143.07,-72.835,279.465,1213.12,-55.2433,176.063,1211.41,132.822,471.955,881.4,196.413,462.269,697.499,99.7873,458.901,523.309,-53.8413,407.068,359.671,-131.096,350.017,357.295,22.0341,403.35,224.302,91.8768,67.5955,859.619,60.1442,105.068,666.275,29.1345,111.543,460.662,26.2761,165.614,219.476,-41.3074,215.742,197.649,172.595,182.315,196.271
10,0,120.269,392.945,1154.84,155.034,119.728,1142.84,-73.1124,278.325,1213.53,-55.3705,174.994,1211.55,133.631,471.429,882.416,200.221,461.568,699.73,106.321,458.411,524.513,-44.6413,407.171,358.179,-121.966,350.183,353.125,35.4769,404.308,225.583,90.9198,67.3622,859.395,58.6066,104.861,666.15,26.9678,111.493,460.627,23.3534,165.561,219.477,-44.2928,215.712,197.694,169.626,182.353,196.156
11,0,119.574,392.234,1155.54,154.913,119.193,1142.59,-73.3895,277.232,1213.96,-55.481,173.97,1211.7,134.285,470.924,883.417,203.511,460.813,701.765,112.67,457.892,525.378,-35.0244,407.283,355.953,-112.377,350.439,348.015,49.6329,405.162,226.496,89.9423,67.1522,859.171,57.0931,104.693,666.024,24.8273,111.455,460.599,20.4265,165.509,219.483,-47.2847,215.68,197.74,166.648,182.376,196.05
12,0,118.904,391.583,1156.23,154.794,118.717,1142.32,-73.6651,276.189,1214.4,-55.5753,172.994,1211.85,134.793,470.442,884.404,206.29,460.009,703.601,118.828,457.351,525.913,-25.0111,407.402,353.047,-102.335,350.773,342.047,64.4064,405.907,227.079,88.9424,66.9654,858.944,55.5997,104.562,665.898,22.7085,111.427,460.575,17.4938,165.458,219.492,-50.2834,215.645,197.783,163.66,182.385,195.952
13,0,118.259,390.994,1156.91,154.675,118.299,1142.02,-73.938,275.196,1214.85,-55.6538,172.068,1212,135.166,469.986,885.374,208.569,459.162,705.237,124.791,456.792,526.132,-14.627,407.527,349.525,-91.8479,351.171,335.313,79.6932,406.542,227.379,87.9185,66.8016,858.715,54.1222,104.466,665.771,20.6064,111.406,460.554,14.5534,165.407,219.504,-53.2889,215.609,197.821,160.662,182.381,195.86
14,0,117.644,390.465,1157.58,154.556,117.937,1141.71,-74.2066,274.256,1215.3,-55.717,171.193,1212.16,135.415,469.561,886.326,210.358,458.276,706.669,130.552,456.222,526.048,-3.90328,407.655,345.459,-80.931,351.618,327.921,95.3829,407.067,227.447,86.8695,66.661,858.484,52.6559,104.403,665.642,18.5155,111.393,460.536,11.6034,165.356,219.517,-56.3018,215.572,197.85,157.653,182.364,195.772
15,0,117.059,389.996,1158.24,154.437,117.63,1141.38,-74.469,273.372,1215.76,-55.7654,170.372,1212.32,135.552,469.168,887.255,211.67,457.359,707.895,136.102,455.646,525.681,7.12251,407.786,340.93,-69.6055,352.101,319.984,111.362,407.487,227.343,85.7947,66.544,858.249,51.1962,104.372,665.51,16.4304,111.383,460.518,8.64212,165.307,219.529,-59.3223,215.535,197.869,154.634,182.337,195.688
16,0,116.51,389.586,1158.89,154.318,117.376,1141.03,-74.7232,272.546,1216.21,-55.7996,169.607,1212.47,135.586,468.811,888.159,212.521,456.419,708.916,141.433,455.071,525.052,18.4064,407.917,336.024,-57.901,352.605,311.627,127.517,407.809,227.126,84.6943,66.4514,858.01,49.7381,104.37,665.376,14.3456,111.376,460.499,5.66783,165.259,219.539,-62.3508,215.499,197.874,151.603,182.3,195.604
17,0,115.999,389.235,1159.51,154.198,117.174,1140.66,-74.9667,271.783,1216.67,-55.82,168.901,1212.62,135.529,468.492,889.03,212.929,455.462,709.729,146.534,454.503,524.183,29.8979,408.049,330.831,-45.8563,353.117,302.978,143.735,408.042,226.858,83.5693,66.3844,857.766,48.277,104.395,665.237,12.2556,111.37,460.477,2.67914,165.212,219.546,-65.3878,215.463,197.864,148.56,182.254,195.52
18,0,115.53,388.942,1160.11,154.078,117.022,1140.27,-75.1967,271.084,1217.12,-55.8271,168.258,1212.77,135.388,468.213,889.862,212.914,454.496,710.338,151.393,453.95,523.101,41.5392,408.182,325.447,-33.5213,353.625,294.167,159.907,408.201,226.599,82.4218,66.3444,857.518,46.8084,104.446,665.094,10.1555,111.363,460.452,-0.325141,165.167,219.548,-68.4339,215.429,197.837,145.507,182.203,195.433
19,0,115.108,388.705,1160.67,153.957,116.918,1139.86,-75.4104,270.455,1217.56,-55.8214,167.679,1212.91,135.172,467.975,890.647,212.5,453.53,710.743,155.998,453.416,521.833,53.2662,408.315,319.963,-20.9567,354.12,285.326,175.929,408.301,226.401,81.2544,66.3332,857.263,45.3284,104.521,664.947,8.04085,111.355,460.422,-3.34586,165.123,219.545,-71.4896,215.395,197.794,142.443,182.146,195.343
20,0,114.738,388.524,1161.2,153.835,116.859,1139.42,-75.6046,269.898,1217.98,-55.8031,167.17,1213.03,134.887,467.777,891.376,211.711,452.571,710.949,160.335,452.907,520.408,65.008,408.449,314.471,-8.23518,354.595,276.579,191.7,408.358,226.311,80.0711,66.3527,857.003,43.8334,104.618,664.794,5.90779,111.343,460.386,-6.3836,165.082,219.536,-74.5556,215.362,197.736,139.369,182.086,195.248
21,0,114.424,388.398,1161.7,153.712,116.843,1138.97,-75.7758,269.417,1218.4,-55.7725,166.733,1213.15,134.536,467.62,892.04,210.573,451.628,710.963,164.39,452.429,518.856,76.6882,408.587,309.056,4.55909,355.046,268.048,207.125,408.389,226.36,78.8762,66.4052,856.736,42.3206,104.737,664.636,3.75314,111.328,460.345,-9.43862,165.042,219.521,-77.6326,215.329,197.662,136.285,182.022,195.148
22,0,114.171,388.324,1162.15,153.59,116.868,1138.5,-75.9205,269.017,1218.79,-55.7296,166.372,1213.25,134.124,467.501,892.628,209.113,450.707,710.79,168.15,451.986,517.204,88.2249,408.729,303.797,17.331,355.47,259.841,222.112,408.41,226.568,77.6747,66.4928,856.462,40.7877,104.876,664.471,1.57448,111.309,460.298,-12.511,165.004,219.501,-80.7211,215.295,197.576,133.19,181.957,195.043
23,0,113.985,388.303,1162.55,153.468,116.931,1138.01,-76.0349,268.7,1219.15,-55.6744,166.09,1213.33,133.652,467.42,893.13,207.362,449.817,710.44,171.6,451.581,515.482,99.5325,408.878,298.764,29.9759,355.868,252.058,236.573,408.436,226.935,76.472,66.6176,856.181,39.2334,105.034,664.301,-0.62988,111.286,460.246,-15.6004,164.967,219.475,-83.822,215.26,197.479,130.087,181.889,194.933
24,0,113.87,388.331,1162.9,153.347,117.031,1137.5,-76.1153,268.471,1219.49,-55.6065,165.89,1213.39,133.121,467.372,893.536,205.347,448.963,709.922,174.727,451.218,513.714,110.523,409.034,294.013,42.3811,356.244,244.782,250.425,408.476,227.448,75.2734,66.7815,855.892,37.657,105.211,664.126,-2.86089,111.26,460.19,-18.7066,164.932,219.446,-86.9358,215.222,197.375,126.973,181.819,194.82
25,0,113.832,388.409,1163.2,153.229,117.164,1136.98,-76.1579,268.333,1219.8,-55.5254,165.775,1213.43,132.531,467.356,893.838,203.1,448.151,709.247,177.517,450.899,511.926,121.106,409.201,289.592,54.4289,356.601,238.082,263.585,408.538,228.072,74.0842,66.986,855.596,36.0586,105.407,663.944,-5.11882,111.232,460.129,-21.8292,164.898,219.413,-90.0633,215.179,197.266,123.848,181.746,194.704
26,0,113.875,388.534,1163.44,153.114,117.328,1136.44,-76.1588,268.288,1220.07,-55.4306,165.748,1213.45,131.883,467.367,894.026,200.648,447.389,708.428,179.959,450.624,510.137,131.193,409.378,285.532,65.999,356.945,232.007,275.978,408.623,228.76,72.9092,67.2322,855.291,34.4393,105.622,663.757,-7.40328,111.204,460.067,-24.9677,164.866,219.378,-93.205,215.133,197.155,120.712,181.67,194.588
27,0,114.004,388.704,1163.62,153.006,117.522,1135.88,-76.1143,268.339,1220.3,-55.321,165.812,1213.44,131.176,467.402,894.095,198.021,446.679,707.478,182.041,450.395,508.365,140.699,409.566,281.852,76.9721,357.282,226.59,287.53,408.73,229.449,71.7526,67.5206,854.977,32.8006,105.856,663.564,-9.71332,111.177,460.002,-28.1218,164.835,219.343,-96.3614,215.08,197.045,117.564,181.588,194.473
28,0,114.223,388.919,1163.74,152.905,117.744,1135.32,-76.0208,268.488,1220.5,-55.1955,165.968,1213.4,130.413,467.459,894.039,195.245,446.027,706.41,183.754,450.212,506.623,149.543,409.764,278.557,87.2334,357.619,221.843,298.172,408.85,230.071,70.6181,67.8512,854.654,31.1453,106.11,663.365,-12.0474,111.154,459.938,-31.291,164.805,219.308,-99.5332,215.022,196.939,114.402,181.499,194.361
29,0,114.537,389.176,1163.8,152.814,117.992,1134.75,-75.8749,268.738,1220.65,-55.0529,166.218,1213.33,129.593,467.535,893.856,192.346,445.437,705.238,185.091,450.073,504.923,157.65,409.971,275.641,96.6766,357.961,217.764,307.844,408.974,230.551,69.5085,68.2235,854.322,29.4766,106.383,663.161,-14.4036,111.138,459.874,-34.4753,164.777,219.274,-102.721,214.958,196.839,111.224,181.401,194.254
30,0,114.948,389.475,1163.8,152.736,118.264,1134.17,-75.6733,269.089,1220.76,-54.8914,166.563,1213.23,128.722,467.628,893.545,189.346,444.912,703.975,186.044,449.978,503.269,164.955,410.183,273.084,105.207,358.312,214.328,316.493,409.088,230.817,68.4258,68.636,853.979,27.7987,106.677,662.952,-16.7794,111.133,459.812,-37.6745,164.751,219.244,-105.924,214.889,196.746,108.029,181.293,194.152
31,0,115.458,389.813,1163.75,152.673,118.56,1133.58,-75.4131,269.541,1220.82,-54.7095,167.005,1213.1,127.802,467.738,893.108,186.268,444.455,702.637,186.61,449.924,501.665,171.405,410.397,270.858,112.746,358.675,211.499,324.08,409.178,230.803,67.3713,69.0871,853.625,26.1164,106.993,662.738,-19.1717,111.14,459.753,-40.8886,164.727,219.216,-109.144,214.815,196.662,104.815,181.173,194.057
32,0,116.072,390.19,1163.63,152.629,118.878,1133,-75.0918,270.096,1220.84,-54.5052,167.542,1212.94,126.841,467.864,892.549,183.128,444.068,701.235,186.787,449.911,500.111,176.957,410.609,268.928,119.233,359.051,209.227,330.575,409.23,230.46,66.3462,69.5744,853.26,24.4354,107.331,662.519,-21.5771,111.165,459.697,-44.1176,164.707,219.194,-112.381,214.738,196.589,101.579,181.039,193.97
33,0,116.789,390.605,1163.46,152.607,119.22,1132.41,-74.7072,270.751,1220.81,-54.2765,168.175,1212.74,125.846,468.007,891.877,179.944,443.755,699.783,186.576,449.937,498.604,181.584,410.813,267.251,124.628,359.439,207.448,335.968,409.233,229.752,65.351,70.0952,852.884,22.7624,107.693,662.296,-23.9915,111.211,459.646,-47.3617,164.691,219.176,-115.634,214.66,196.528,98.3217,180.892,193.889
34,0,117.61,391.057,1163.24,152.611,119.584,1131.84,-74.2575,271.507,1220.73,-54.0212,168.903,1212.51,124.827,468.169,891.101,176.727,443.515,698.294,185.981,449.999,497.139,185.274,411.003,265.783,128.913,359.836,206.093,340.261,409.18,228.665,64.3865,70.6467,852.496,21.1045,108.08,662.068,-26.4101,111.281,459.598,-50.6207,164.68,219.164,-118.904,214.581,196.48,95.0406,180.731,193.815
35,0,118.536,391.545,1162.98,152.644,119.97,1131.27,-73.7415,272.36,1220.61,-53.7372,169.724,1212.25,123.793,468.353,890.231,173.49,443.352,696.78,185.01,450.096,495.71,188.029,411.174,264.48,132.094,360.238,205.089,343.477,409.068,227.21,63.4537,71.2259,852.096,19.47,108.493,661.837,-28.8277,111.379,459.556,-53.8946,164.675,219.158,-122.19,214.505,196.446,91.7351,180.555,193.747
36,0,119.565,392.069,1162.67,152.709,120.381,1130.72,-73.1582,273.31,1220.44,-53.4222,170.637,1211.96,122.755,468.564,889.282,170.24,443.266,695.252,183.671,450.226,494.311,189.869,411.32,263.296,134.199,360.637,204.359,345.657,408.901,225.416,62.5546,71.83,851.686,17.8677,108.933,661.603,-31.238,111.509,459.518,-57.1827,164.677,219.159,-125.493,214.433,196.431,88.4053,180.368,193.683
37,0,120.695,392.629,1162.33,152.811,120.817,1130.19,-72.5074,274.354,1220.23,-53.0741,171.64,1211.64,121.727,468.804,888.269,166.985,443.258,693.721,181.978,450.389,492.935,190.828,411.437,262.191,135.277,361.029,203.832,346.86,408.687,223.334,61.6917,72.4564,851.265,16.3072,109.402,661.367,-33.6339,111.675,459.486,-60.4843,164.688,219.17,-128.81,214.368,196.435,85.0514,180.169,193.621
38,0,121.925,393.224,1161.95,152.954,121.279,1129.68,-71.7893,275.487,1219.98,-52.6907,172.728,1211.29,120.719,469.078,887.207,163.729,443.329,692.196,179.948,450.582,491.577,190.953,411.521,261.132,135.399,361.403,203.438,347.159,408.441,221.032,60.869,73.1031,850.836,14.799,109.902,661.131,-36.0077,111.878,459.461,-63.7981,164.709,219.191,-132.141,214.312,196.463,81.6743,179.963,193.559
39,0,123.25,393.855,1161.56,153.14,121.769,1129.19,-71.0046,276.707,1219.69,-52.27,173.901,1210.92,119.743,469.392,886.114,160.477,443.479,690.689,177.602,450.805,490.232,190.306,411.568,260.087,134.649,361.754,203.117,346.645,408.178,218.587,60.092,73.7685,850.401,13.3541,110.433,660.896,-38.3506,112.121,459.443,-67.1222,164.739,219.226,-135.485,214.266,196.52,78.2757,179.753,193.497
40,0,124.667,394.522,1161.14,153.374,122.289,1128.74,-70.1545,278.009,1219.38,-51.8101,175.153,1210.52,118.81,469.749,885.006,157.234,443.707,689.207,174.964,451.058,488.896,188.958,411.58,259.036,133.127,362.073,202.819,345.415,407.919,216.083,59.3675,74.4518,849.961,11.9837,110.999,660.664,-40.6529,112.406,459.435,-70.4543,164.779,219.277,-138.84,214.232,196.612,74.8578,179.541,193.431
41,0,126.17,395.226,1160.72,153.658,122.841,1128.32,-69.2409,279.39,1219.03,-51.3094,176.48,1210.1,117.93,470.154,883.901,154.002,444.014,687.76,172.061,451.34,487.569,186.988,411.555,257.965,130.938,362.354,202.504,343.577,407.682,213.602,58.704,75.1532,849.52,10.6999,111.599,660.439,-42.9043,112.735,459.438,-73.7911,164.83,219.35,-142.203,214.209,196.745,71.4231,179.333,193.36
42,0,127.754,395.967,1160.29,153.996,123.429,1127.94,-68.2659,280.844,1218.66,-50.7666,177.88,1209.67,117.111,470.609,882.814,150.787,444.398,686.355,168.922,451.652,486.252,184.482,411.496,256.867,128.196,362.592,202.143,341.238,407.484,211.22,58.1112,75.8733,849.082,9.5144,112.237,660.222,-45.0937,113.107,459.455,-77.1289,164.89,219.449,-145.572,214.199,196.929,67.9749,179.133,193.284
43,0,129.412,396.748,1159.86,154.39,124.053,1127.6,-67.2323,282.367,1218.26,-50.1805,179.347,1209.22,116.36,471.119,881.759,147.593,444.857,685.001,165.582,451.992,484.948,181.529,411.408,255.743,125.011,362.785,201.721,338.506,407.339,209.003,57.6003,76.614,848.652,8.43916,112.913,660.016,-47.2097,113.522,459.491,-80.463,164.958,219.581,-148.944,214.199,197.171,64.5166,178.944,193.202
44,0,131.138,397.568,1159.45,154.842,124.717,1127.31,-66.1433,283.954,1217.85,-49.5503,180.877,1208.76,115.682,471.683,880.752,144.426,445.387,683.704,162.074,452.362,483.662,178.216,411.295,254.598,121.491,362.93,201.23,335.482,407.255,207.001,57.1834,77.3778,848.233,7.48568,113.629,659.826,-49.2405,113.98,459.549,-83.7882,165.033,219.753,-152.314,214.209,197.481,61.0519,178.771,193.113
45,0,132.923,398.43,1159.05,155.353,125.424,1127.08,-65.0025,285.6,1217.43,-48.8757,182.466,1208.3,115.079,472.302,879.803,141.293,445.988,682.471,158.437,452.76,482.399,174.63,411.163,253.445,117.737,363.029,200.675,332.255,407.236,205.249,56.8731,78.1679,847.831,6.66491,114.385,659.655,-51.1744,114.478,459.635,-87.0986,165.111,219.972,-155.68,214.225,197.869,57.5847,178.617,193.018
46,0,134.762,399.333,1158.66,155.925,126.176,1126.9,-63.8139,287.3,1217.01,-48.1566,184.109,1207.83,114.554,472.976,878.921,138.205,446.653,681.308,154.706,453.186,481.169,170.85,411.019,252.298,113.839,363.084,200.067,328.905,407.278,203.764,56.6822,78.988,847.452,5.98691,115.183,659.506,-53.0003,115.015,459.753,-90.3879,165.19,220.246,-159.035,214.244,198.346,54.1187,178.485,192.917
47,0,136.644,400.281,1158.31,156.558,126.974,1126.78,-62.5818,289.048,1216.58,-47.3936,185.8,1207.37,114.104,473.702,878.115,135.169,447.379,680.22,150.92,453.641,479.98,166.949,410.87,251.174,109.873,363.099,199.422,325.496,407.375,202.549,56.623,79.8423,847.101,5.46061,116.023,659.384,-54.7076,115.586,459.91,-93.6493,165.266,220.585,-162.376,214.261,198.922,50.6576,178.378,192.811
48,0,138.563,401.273,1157.98,157.252,127.822,1126.71,-61.311,290.841,1216.15,-46.5875,187.537,1206.91,113.727,474.477,877.39,132.198,448.161,679.212,147.114,454.122,478.84,162.994,410.723,250.091,105.903,363.079,198.761,322.077,407.513,201.591,56.7071,80.7353,846.783,5.09359,116.904,659.293,-56.2868,116.189,460.11,-96.8759,165.334,220.997,-165.696,214.27,199.606,47.2049,178.295,192.702
49,0,140.509,402.312,1157.68,158.007,128.721,1126.72,-60.0062,292.673,1215.74,-45.7397,189.313,1206.46,113.419,475.297,876.749,129.304,448.993,678.286,143.325,454.629,477.758,159.037,410.584,249.065,101.977,363.033,198.105,318.683,407.68,200.866,56.9444,81.6712,846.504,4.89177,117.826,659.235,-57.73,116.818,460.36,-100.061,165.389,221.488,-168.991,214.265,200.406,43.7637,178.238,192.591
50,0,142.474,403.397,1157.42,158.819,129.672,1126.78,-58.6727,294.539,1215.33,-44.8521,191.125,1206.02,113.175,476.157,876.193,126.499,449.869,677.446,139.583,455.16,476.742,155.123,410.459,248.113,98.1311,362.966,197.475,315.336,407.859,200.346,57.3432,82.654,846.269,4.85935,118.788,659.213,-59.0311,117.47,460.665,-103.197,165.425,222.067,-172.256,214.239,201.331,40.3368,178.206,192.48
51,0,144.45,404.53,1157.2,159.688,130.676,1126.92,-57.3157,296.436,1214.93,-43.9269,192.968,1205.6,112.986,477.052,875.72,123.794,450.783,676.692,135.92,455.713,475.799,151.285,410.352,247.246,94.3858,362.887,196.891,312.044,408.036,199.993,57.9092,83.6875,846.081,4.9986,119.787,659.231,-60.1859,118.138,461.029,-106.279,165.437,222.74,-175.485,214.184,202.385,36.9267,178.196,192.372
52,0,146.429,405.71,1157.01,160.61,131.734,1127.12,-55.9406,298.358,1214.56,-42.967,194.838,1205.2,112.848,477.977,875.328,121.204,451.727,676.024,132.359,456.285,474.934,147.546,410.266,246.475,90.7514,362.802,196.366,308.81,408.196,199.773,58.6457,84.7743,845.946,5.30992,120.822,659.289,-61.1925,118.817,461.457,-109.302,165.419,223.511,-178.673,214.093,203.573,33.5354,178.207,192.267
53,0,148.403,406.939,1156.86,161.581,132.846,1127.38,-54.553,300.302,1214.2,-41.9758,196.732,1204.82,112.75,478.925,875.013,118.737,452.697,675.442,128.924,456.875,474.151,143.921,410.203,245.803,87.228,362.717,195.913,305.628,408.329,199.648,59.5527,85.9164,845.866,5.79182,121.887,659.389,-62.0514,119.502,461.951,-112.26,165.365,224.382,-181.818,213.958,204.896,30.165,178.234,192.169
54,0,150.364,408.214,1156.75,162.598,134.011,1127.71,-53.1584,302.264,1213.86,-40.9571,198.645,1204.47,112.684,479.892,874.767,116.405,453.686,674.941,125.632,457.479,473.452,140.414,410.165,245.232,83.8087,362.639,195.539,302.487,408.427,199.588,60.6274,87.1145,845.841,6.44111,122.98,659.529,-62.7653,120.187,462.511,-115.15,165.271,225.354,-184.916,213.773,206.353,26.8169,178.275,192.079
55,0,152.304,409.537,1156.68,163.653,135.229,1128.11,-51.7624,304.241,1213.55,-39.9151,200.575,1204.13,112.643,480.872,874.584,114.214,454.687,674.52,122.494,458.094,472.835,137.023,410.148,244.761,80.4808,362.572,195.246,299.375,408.484,199.563,61.8637,88.368,845.873,7.2531,124.096,659.71,-63.3391,120.866,463.138,-117.972,165.131,226.427,-187.965,213.531,207.941,23.4928,178.324,192
56,0,154.219,410.904,1156.64,164.743,136.498,1128.57,-50.3706,306.229,1213.26,-38.8547,202.518,1203.83,112.617,481.861,874.456,112.171,455.696,674.172,119.519,458.717,472.298,133.743,410.153,244.384,77.2287,362.518,195.033,296.281,408.501,199.553,63.2528,89.6752,845.962,8.22196,125.228,659.927,-63.7796,121.534,463.829,-120.724,164.943,227.595,-190.964,213.227,209.654,20.1943,178.376,191.933
57,0,156.1,412.315,1156.62,165.859,137.814,1129.08,-48.9883,308.226,1212.99,-37.7808,204.472,1203.55,112.598,482.856,874.375,110.279,456.708,673.893,116.71,459.345,471.838,130.56,410.176,244.093,74.0351,362.479,194.894,293.193,408.478,199.539,64.7831,91.0327,846.106,9.34108,126.371,660.177,-64.095,122.186,464.58,-123.407,164.704,228.854,-193.912,212.859,211.484,16.9228,178.428,191.879
58,0,157.943,413.767,1156.64,166.995,139.177,1129.65,-47.6211,310.229,1212.74,-36.6992,206.433,1203.29,112.578,483.855,874.331,108.538,457.718,673.674,114.068,459.976,471.448,127.462,410.215,243.877,70.8831,362.456,194.82,290.102,408.421,199.51,66.4405,92.4358,846.301,10.6036,127.519,660.456,-64.2945,122.818,465.387,-126.023,164.414,230.196,-196.81,212.424,213.422,13.6803,178.475,191.841
59,0,159.742,415.256,1156.67,168.144,140.582,1130.27,-46.2742,312.235,1212.52,-35.6157,208.4,1203.06,112.55,484.856,874.316,106.947,458.724,673.509,111.587,460.605,471.122,124.433,410.265,243.725,67.7572,362.447,194.803,287.002,408.335,199.458,68.2095,93.8787,846.544,12.0028,128.664,660.757,-64.3877,123.426,466.241,-128.576,164.074,231.612,-199.661,211.924,215.456,10.4688,178.512,191.819
60,0,161.493,416.781,1156.73,169.296,142.025,1130.93,-44.9528,314.244,1212.31,-34.5366,210.37,1202.86,112.508,485.858,874.321,105.502,459.722,673.39,109.26,461.232,470.851,121.458,410.324,243.623,64.6442,362.453,194.83,283.888,408.229,199.382,70.0733,95.3542,846.829,13.5329,129.799,661.072,-64.3838,124.007,467.134,-131.07,163.687,233.092,-202.466,211.362,217.575,7.29031,178.537,191.812
61,0,163.192,418.336,1156.79,170.443,143.503,1131.63,-43.6617,316.252,1212.13,-33.4683,212.343,1202.67,112.444,486.861,874.339,104.196,460.711,673.308,107.078,461.852,470.626,118.522,410.388,243.56,61.5339,362.47,194.889,280.759,408.111,199.28,72.0145,96.8541,847.151,15.1894,130.917,661.394,-64.2908,124.559,468.056,-133.509,163.258,234.625,-205.227,210.743,219.765,4.14722,178.546,191.821
62,0,164.835,419.917,1156.87,171.576,145.009,1132.36,-42.4059,318.26,1211.95,-32.4175,214.316,1202.51,112.355,487.866,874.362,103.019,461.689,673.256,105.027,462.465,470.439,115.613,410.456,243.523,58.4187,362.496,194.97,277.614,407.988,199.153,74.0162,98.3696,847.503,16.9695,132.011,661.714,-64.1152,125.079,468.996,-135.897,162.793,236.2,-207.947,210.076,222.017,1.04168,178.539,191.844
63,0,166.419,421.52,1156.94,172.686,146.54,1133.12,-41.1899,320.265,1211.79,-31.3912,216.288,1202.37,112.236,488.874,874.384,101.962,462.656,673.224,103.094,463.067,470.28,112.718,410.525,243.501,55.2943,362.529,195.062,274.455,407.868,199.006,76.0624,99.891,847.878,18.8728,133.074,662.022,-63.8609,125.569,469.943,-138.239,162.3,237.808,-210.626,209.372,224.32,-2.02442,178.514,191.877
64,0,167.943,423.139,1157.02,173.763,148.09,1133.9,-40.0181,322.266,1211.65,-30.3962,218.259,1202.24,112.084,489.887,874.399,101.011,463.611,673.205,101.264,463.657,470.141,109.83,410.594,243.484,52.1588,362.567,195.155,271.284,407.758,198.842,78.1389,101.409,848.268,20.9016,134.099,662.309,-63.5289,126.026,470.886,-140.537,161.788,239.44,-213.265,208.641,226.669,-5.0498,178.471,191.919
65,0,169.402,424.769,1157.08,174.797,149.653,1134.69,-38.8946,324.264,1211.5,-29.4396,220.228,1202.12,111.897,490.905,874.401,100.155,464.554,673.192,99.5231,464.234,470.013,106.943,410.663,243.463,49.0125,362.608,195.242,268.106,407.662,198.664,80.2338,102.913,848.665,23.061,135.08,662.566,-63.1165,126.451,471.814,-142.792,161.269,241.089,-215.861,207.899,229.06,-8.0341,178.412,191.965
66,0,170.797,426.404,1157.14,175.778,151.223,1135.48,-37.8233,326.258,1211.37,-28.5283,222.194,1202.01,111.674,491.93,874.388,99.378,465.486,673.177,97.855,464.796,469.89,104.052,410.731,243.433,45.8575,362.649,195.317,264.923,407.584,198.476,82.3383,104.393,849.061,25.3594,136.011,662.784,-62.6176,126.846,472.718,-145.003,160.754,242.752,-218.407,207.161,231.495,-10.9783,178.338,192.009
67,0,172.125,428.038,1157.17,176.699,152.795,1136.27,-36.8079,328.246,1211.24,-27.6692,224.157,1201.9,111.416,492.962,874.356,98.6662,466.408,673.155,96.2455,465.342,469.765,101.157,410.8,243.389,42.6967,362.69,195.376,261.739,407.524,198.281,84.447,105.842,849.45,27.8079,136.887,662.954,-62.0219,127.21,473.59,-147.166,160.253,244.43,-220.897,206.443,233.981,-13.885,178.252,192.046
68,0,173.386,429.666,1157.18,177.548,154.361,1137.05,-35.8516,330.23,1211.1,-26.8688,226.117,1201.8,111.124,494.002,874.303,98.0051,467.319,673.121,94.6807,465.871,469.632,98.2566,410.869,243.326,39.5337,362.73,195.417,258.557,407.483,198.083,86.5581,107.249,849.823,30.4207,137.703,663.071,-61.3154,127.547,474.423,-149.276,159.779,246.126,-223.316,205.761,236.531,-16.759,178.157,192.069
69,0,174.578,431.281,1157.17,178.317,155.917,1137.82,-34.9577,332.209,1210.97,-26.1336,228.074,1201.69,110.8,495.049,874.227,97.3803,468.221,673.07,93.1475,466.383,469.489,95.3534,410.939,243.245,36.3721,362.768,195.44,255.381,407.459,197.882,88.6735,108.608,850.176,33.2144,138.455,663.129,-60.4807,127.855,475.217,-151.322,159.342,247.847,-225.647,205.132,239.162,-19.6071,178.057,192.072
70,0,175.701,432.877,1157.13,178.998,157.457,1138.57,-34.1287,334.182,1210.83,-25.4696,230.027,1201.58,110.447,496.102,874.128,96.7778,469.115,672.999,91.6342,466.877,469.33,92.4497,411.012,243.143,33.2153,362.803,195.444,252.213,407.449,197.682,90.7988,109.913,850.502,36.2077,139.141,663.123,-59.497,128.138,475.969,-153.292,158.952,249.608,-227.87,204.573,241.899,-22.4383,177.956,192.051
71,0,176.755,434.448,1157.06,179.583,158.974,1139.28,-33.3672,336.151,1210.69,-24.8824,231.978,1201.46,110.067,497.159,874.005,96.1844,470.001,672.906,90.1298,467.353,469.155,89.5485,411.088,243.024,30.0657,362.837,195.431,249.055,407.448,197.484,92.9431,111.157,850.799,39.4205,139.758,663.054,-58.3413,128.396,476.685,-155.169,158.619,251.425,-229.958,204.098,244.772,-25.2639,177.859,191.999
72,0,177.739,435.99,1156.95,180.065,160.464,1139.96,-32.6753,338.114,1210.53,-24.3772,233.925,1201.34,109.666,498.218,873.86,95.5874,470.878,672.788,88.6246,467.81,468.962,86.653,411.168,242.887,26.9255,362.869,195.405,245.91,407.452,197.29,95.118,112.336,851.063,42.8735,140.304,662.922,-56.9888,128.63,477.371,-156.934,158.35,253.319,-231.881,203.722,247.815,-28.0966,177.769,191.915
73,0,178.654,437.497,1156.81,180.437,161.922,1140.61,-32.0547,340.072,1210.38,-23.9585,235.869,1201.2,109.246,499.276,873.692,94.975,471.749,672.645,87.1099,468.251,468.751,83.7659,411.251,242.736,23.7958,362.9,195.367,242.78,407.456,197.1,97.3377,113.447,851.293,46.5873,140.78,662.729,-55.414,128.841,478.038,-158.565,158.151,255.314,-233.605,203.458,251.065,-30.9499,177.69,191.798
74,0,179.498,438.963,1156.63,180.694,163.343,1141.22,-31.507,342.023,1210.21,-23.6304,237.81,1201.04,108.811,500.329,873.502,94.336,472.611,672.478,85.5779,468.674,468.521,80.8895,411.339,242.574,20.6768,362.931,195.32,239.664,407.456,196.917,99.6175,114.488,851.49,50.5811,141.184,662.482,-53.5916,129.029,478.698,-160.039,158.027,257.437,-235.094,203.317,254.56,-33.8368,177.627,191.65
75,0,180.273,440.385,1156.41,180.831,164.722,1141.78,-31.0332,343.969,1210.03,-23.3961,239.746,1200.87,108.364,501.375,873.291,93.6603,473.467,672.286,84.0214,469.081,468.275,78.0252,411.43,242.404,17.5684,362.963,195.268,236.563,407.448,196.741,101.973,115.457,851.655,54.8724,141.518,662.19,-51.4973,129.196,479.37,-161.329,157.98,259.717,-236.31,203.308,258.339,-36.7687,177.582,191.478
76,0,180.977,441.759,1156.16,180.845,166.056,1142.29,-30.6341,345.907,1209.85,-23.2583,241.678,1200.69,107.907,502.41,873.062,92.9382,474.314,672.072,82.4341,469.473,468.014,75.1735,411.526,242.228,14.4697,362.996,195.213,233.478,407.428,196.573,104.42,116.355,851.793,59.4755,141.784,661.862,-49.1093,129.342,480.073,-162.408,158.014,262.183,-237.213,203.441,262.437,-39.7531,177.559,191.292
77,0,181.611,443.081,1155.87,180.734,167.342,1142.76,-30.31,347.837,1209.66,-23.2186,243.604,1200.49,107.442,503.43,872.814,92.1611,475.153,671.836,80.81,469.852,467.738,72.3338,411.624,242.05,11.3797,363.031,195.157,230.407,407.394,196.415,106.973,117.181,851.908,64.401,141.984,661.512,-46.4086,129.467,480.826,-163.25,158.127,264.86,-237.768,203.719,266.884,-42.7922,177.559,191.107
78,0,182.175,444.348,1155.54,180.495,168.577,1143.18,-30.061,349.758,1209.46,-23.2782,245.524,1200.27,106.97,504.433,872.549,91.3208,475.984,671.582,79.1434,470.219,467.451,69.5047,411.726,241.871,8.29719,363.069,195.103,227.351,407.346,196.266,109.643,117.937,852.007,69.6549,142.12,661.155,-43.3802,129.574,481.651,-163.828,158.319,267.772,-237.94,204.147,271.704,-45.8799,177.585,190.941
79,0,182.668,445.558,1155.18,180.13,169.758,1143.55,-29.8867,351.668,1209.26,-23.4373,247.435,1200.04,106.488,505.417,872.269,90.4099,476.805,671.31,77.429,470.577,467.154,66.6841,411.83,241.694,5.22099,363.109,195.051,224.307,407.285,196.128,112.438,118.624,852.098,75.238,142.197,660.806,-40.0138,129.664,482.571,-164.116,158.588,270.939,-237.698,204.725,276.907,-49.0006,177.635,190.819
80,0,183.092,446.708,1154.79,179.639,170.884,1143.87,-29.7864,353.565,1209.05,-23.6952,249.336,1199.8,105.996,506.378,871.973,89.4216,477.615,671.024,75.6618,470.926,466.849,63.8691,411.936,241.521,2.15013,363.153,195.003,221.273,407.211,195.999,115.363,119.244,852.189,81.1453,142.219,660.485,-36.3041,129.739,483.605,-164.09,158.931,274.37,-237.018,205.451,282.493,-52.1266,177.709,190.766
81,0,183.445,447.798,1154.36,179.024,171.954,1144.16,-29.7591,355.447,1208.84,-24.0505,251.225,1199.55,105.489,507.315,871.664,88.3499,478.414,670.726,73.8368,471.27,466.539,61.0565,412.045,241.352,-0.916114,363.2,194.959,218.249,407.127,195.879,118.418,119.798,852.289,87.3656,142.19,660.208,-32.2508,129.803,484.771,-163.728,159.344,278.07,-235.883,206.321,288.447,-55.2167,177.807,190.812
82,0,183.729,448.827,1153.91,178.289,172.966,1144.4,-29.8034,357.312,1208.64,-24.5011,253.099,1199.29,104.963,508.227,871.341,87.1894,479.2,670.418,71.9495,471.609,466.225,58.2427,412.155,241.187,-3.97817,363.249,194.917,215.233,407.036,195.767,121.598,120.289,852.409,93.8815,142.116,659.995,-27.8595,129.857,486.083,-163.011,159.824,282.032,-234.283,207.326,294.735,-58.2151,177.924,190.989
83,0,183.942,449.794,1153.43,177.437,173.921,1144.6,-29.9174,359.155,1208.43,-25.0437,254.954,1199.02,104.412,509.113,871.006,85.9356,479.972,670.104,69.9956,471.945,465.91,55.4244,412.266,241.027,-7.03612,363.301,194.879,212.223,406.941,195.662,124.893,120.719,852.559,100.669,142.003,659.865,-23.1406,129.907,487.551,-161.92,160.364,286.238,-232.216,208.456,301.31,-61.0509,178.057,191.326
84,0,184.085,450.699,1152.93,176.476,174.818,1144.77,-30.0991,360.975,1208.23,-25.6747,256.788,1198.76,103.829,509.97,870.659,84.5848,480.728,669.786,67.9714,472.279,465.596,52.5982,412.378,240.872,-10.0898,363.354,194.842,209.216,406.845,195.563,128.288,121.09,852.748,107.699,141.856,659.836,-18.1092,129.957,489.18,-160.442,160.96,290.657,-229.689,209.697,308.104,-63.6384,178.201,191.853
85,0,184.159,451.543,1152.41,175.411,175.659,1144.92,-30.3462,362.767,1208.04,-26.3896,258.596,1198.5,103.207,510.8,870.301,83.1345,481.465,669.466,65.8735,472.611,465.284,49.7611,412.49,240.72,-13.1388,363.407,194.805,206.213,406.751,195.467,131.764,121.404,852.986,114.936,141.682,659.923,-12.7846,130.012,490.969,-158.563,161.606,295.248,-226.712,211.034,315.032,-65.8786,178.35,192.594
86,0,184.164,452.326,1151.87,174.25,176.444,1145.04,-30.6558,364.527,1207.86,-27.1831,260.374,1198.25,102.539,511.6,869.933,81.5828,482.182,669.146,63.6997,472.941,464.977,46.9106,412.601,240.572,-16.1825,363.458,194.767,203.211,406.663,195.374,135.297,121.663,853.282,122.34,141.487,660.143,-7.18956,130.076,492.909,-156.271,162.295,299.956,-223.306,212.447,321.995,-67.661,178.498,193.569
87,0,184.099,453.05,1151.31,173,177.173,1145.14,-31.0249,366.252,1207.69,-28.0495,262.118,1198.01,101.815,512.369,869.556,79.9295,482.875,668.829,61.4483,473.268,464.677,44.0447,412.711,240.426,-19.2203,363.506,194.725,200.21,406.581,195.282,138.86,121.87,853.644,129.865,141.277,660.507,-1.34887,130.153,494.985,-153.556,163.019,304.715,-219.493,213.916,328.876,-68.8669,178.638,194.79
88,0,183.967,453.717,1150.75,171.672,177.85,1145.23,-31.4503,367.935,1207.54,-28.9825,263.823,1197.79,101.03,513.107,869.17,78.1752,483.54,668.515,59.1188,473.591,464.384,41.1618,412.819,240.281,-22.2515,363.548,194.678,197.207,406.507,195.19,142.422,122.025,854.079,137.464,141.058,661.026,4.71115,130.249,497.175,-150.406,163.773,309.449,-215.295,215.419,335.552,-69.3729,178.763,196.26
89,0,183.767,454.326,1150.17,170.275,178.475,1145.32,-31.9285,369.574,1207.41,-29.9752,265.483,1197.6,100.176,513.81,868.776,76.3222,484.176,668.208,56.7119,473.907,464.101,38.2611,412.922,240.137,-25.2756,363.583,194.625,194.202,406.441,195.097,145.954,122.132,854.593,145.085,140.835,661.708,10.9639,130.365,499.451,-146.812,164.548,314.074,-210.738,216.934,341.889,-69.0555,178.867,197.971
90,0,183.5,454.881,1149.58,168.818,179.05,1145.4,-32.4556,371.161,1207.3,-31.0204,267.094,1197.43,99.2474,514.478,868.376,74.3737,484.777,667.908,54.2294,474.213,463.83,35.3419,413.019,239.994,-28.2923,363.609,194.563,191.194,406.384,195.003,149.422,122.192,855.19,152.678,140.615,662.556,17.3834,130.506,501.778,-142.76,165.335,318.497,-205.841,218.436,347.749,-67.7952,178.943,199.906
91,0,183.168,455.383,1148.99,167.313,179.577,1145.49,-33.0276,372.694,1207.21,-32.1106,268.649,1197.3,98.2399,515.106,867.971,72.3345,485.34,667.617,51.6746,474.506,463.571,32.4042,413.109,239.851,-31.3015,363.622,194.492,188.18,406.335,194.908,152.795,122.206,855.874,160.188,140.403,663.572,23.9454,130.671,504.118,-138.236,166.127,322.625,-200.618,219.905,352.997,-65.4816,178.985,202.039
92,0,182.771,455.833,1148.4,165.77,180.058,1145.59,-33.6404,374.166,1207.15,-33.238,270.143,1197.21,97.1502,515.691,867.561,70.2104,485.86,667.335,49.0518,474.781,463.327,29.4483,413.189,239.709,-34.3035,363.622,194.409,185.158,406.294,194.812,156.042,122.178,856.645,167.563,140.204,664.754,30.6276,130.86,506.427,-133.223,166.912,326.362,-195.078,221.318,357.501,-62.0176,178.99,204.333
93,0,182.312,456.233,1147.8,164.201,180.494,1145.71,-34.2896,375.573,1207.12,-34.3945,271.571,1197.16,95.9767,516.231,867.149,68.0085,486.333,667.064,46.3668,475.033,463.099,26.4748,413.258,239.568,-37.299,363.606,194.314,182.128,406.257,194.717,159.136,122.108,857.505,174.753,140.021,666.096,37.4108,131.073,508.659,-127.702,167.683,329.616,-189.219,222.654,361.139,-57.3232,178.956,206.742
94,0,181.793,456.586,1147.21,162.616,180.888,1145.84,-34.9706,376.909,1207.12,-35.572,272.928,1197.16,94.7196,516.719,866.736,65.7368,486.755,666.805,43.6261,475.258,462.887,23.4845,413.314,239.43,-40.2892,363.574,194.208,179.086,406.225,194.622,162.05,121.999,858.452,181.709,139.859,667.588,44.2785,131.305,510.769,-121.649,168.43,332.299,-183.027,223.896,363.804,-51.3388,178.88,209.219
95,0,181.215,456.891,1146.61,161.027,181.242,1146,-35.6787,378.169,1207.16,-36.7623,274.206,1197.21,93.3804,517.152,866.324,63.4042,487.121,666.557,40.8375,475.45,462.693,20.4782,413.353,239.295,-43.2757,363.523,194.09,176.031,406.196,194.529,164.765,121.853,859.484,188.385,139.72,669.219,51.2176,131.552,512.711,-115.04,169.141,334.335,-176.482,225.027,365.407,-44.0274,178.763,211.709
96,0,180.582,457.152,1146.02,159.444,181.556,1146.19,-36.4092,379.348,1207.22,-37.9573,275.403,1197.31,91.9624,517.525,865.915,61.0201,487.427,666.323,38.0094,475.605,462.517,17.4571,413.375,239.165,-46.2609,363.455,193.961,172.961,406.168,194.44,167.262,121.671,860.598,194.739,139.608,670.974,58.2175,131.81,514.443,-107.849,169.807,335.658,-169.55,226.033,365.878,-35.3757,178.609,214.159
97,0,179.896,457.368,1145.43,157.879,181.832,1146.4,-37.1572,380.443,1207.32,-39.1488,276.511,1197.47,90.4702,517.833,865.509,58.5943,487.669,666.101,35.1505,475.718,462.36,14.4223,413.378,239.041,-49.2474,363.368,193.824,169.874,406.139,194.354,169.53,121.456,861.788,200.735,139.526,672.836,65.2701,132.07,515.926,-100.049,170.419,336.218,-162.192,226.904,365.174,-25.3947,178.42,216.52
98,0,179.16,457.541,1144.85,156.342,182.072,1146.65,-37.9177,381.447,1207.45,-40.3288,277.527,1197.68,88.9097,518.072,865.11,56.1369,487.843,665.893,32.2699,475.785,462.222,11.3749,413.36,238.926,-52.2385,363.263,193.68,166.77,406.108,194.271,171.559,121.209,863.048,206.339,139.474,674.784,72.3691,132.328,517.127,-91.6127,170.968,335.984,-154.358,227.631,363.277,-14.1188,178.203,218.746
99,0,178.379,457.671,1144.26,154.844,182.275,1146.93,-38.6856,382.358,1207.62,-41.4894,278.446,1197.96,87.2876,518.236,864.719,53.6578,487.947,665.698,29.3765,475.801,462.103,8.31606,413.32,238.82,-55.2376,363.142,193.533,163.649,406.075,194.194,173.347,120.931,864.37,211.524,139.454,676.797,79.5088,132.574,518.022,-82.5164,171.444,334.941,-145.999,228.208,360.194,-1.6043,177.965,220.801
100,0,177.555,457.76,1143.69,153.394,182.443,1147.24,-39.4559,383.171,1207.82,-42.6229,279.263,1198.29,85.6114,518.324,864.337,51.1664,487.979,665.515,26.4791,475.764,462.004,5.24678,413.257,238.725,-58.2487,363.005,193.386,160.511,406.038,194.12,174.895,120.625,865.747,216.267,139.468,678.853,86.6834,132.803,518.592,-72.7398,171.841,333.098,-137.061,228.631,355.96,12.0726,177.715,222.658
101,0,176.695,457.808,1143.11,152.002,182.576,1147.59,-40.2235,383.883,1208.05,-43.722,279.976,1198.67,83.8892,518.33,863.966,48.6717,487.936,665.346,23.5855,475.671,461.923,2.1681,413.169,238.643,-61.2755,362.855,193.245,157.358,405.996,194.05,176.206,120.292,867.169,220.553,139.517,680.927,93.8863,133.009,518.829,-62.2691,172.152,330.48,-127.496,228.901,350.637,26.8182,177.461,224.3
102,0,175.802,457.815,1142.54,150.678,182.675,1147.96,-40.9832,384.49,1208.31,-44.7793,280.58,1199.11,82.1292,518.253,863.607,46.1822,487.818,665.189,20.7031,475.52,461.859,-0.919057,413.057,238.576,-64.3217,362.692,193.112,154.19,405.948,193.984,177.291,119.933,868.625,224.369,139.599,682.993,101.108,133.186,518.734,-51.0988,172.374,327.135,-117.261,229.018,344.31,42.5245,177.215,225.724
103,0,174.881,457.782,1141.97,149.43,182.738,1148.37,-41.73,384.99,1208.6,-45.7882,281.074,1199.6,80.3393,518.09,863.261,43.7051,487.624,665.044,17.838,475.312,461.813,-4.01388,412.921,238.524,-67.3907,362.52,192.994,151.011,405.894,193.92,178.16,119.55,870.103,227.709,139.716,685.029,108.338,133.331,518.314,-39.2343,172.504,323.128,-106.326,228.988,337.087,59.0712,176.986,226.936
104,0,173.938,457.709,1141.4,148.265,182.767,1148.79,-42.4589,385.38,1208.91,-46.7419,281.453,1200.14,78.5276,517.841,862.929,41.2468,487.355,664.911,14.9953,475.044,461.782,-7.11569,412.761,238.488,-70.485,362.34,192.892,147.824,405.834,193.858,178.828,119.145,871.59,230.571,139.867,687.009,115.559,133.442,517.588,-26.6935,172.542,318.539,-94.6725,228.818,329.092,76.3291,176.787,227.953
105,0,172.98,457.595,1140.83,147.193,182.76,1149.24,-43.1648,385.659,1209.25,-47.6343,281.717,1200.71,76.7014,517.507,862.611,38.8126,487.012,664.788,12.1787,474.72,461.766,-10.224,412.577,238.469,-73.6066,362.153,192.812,144.63,405.768,193.797,179.31,118.719,873.071,232.959,140.052,688.91,122.752,133.519,516.58,-13.5093,172.491,313.464,-82.3023,228.517,320.469,94.1617,176.626,228.8
106,0,172.011,457.442,1140.27,146.22,182.717,1149.7,-43.8428,385.824,1209.6,-48.4594,281.865,1201.33,74.8678,517.087,862.308,36.4069,486.598,664.675,9.39083,474.34,461.762,-13.3383,412.37,238.467,-76.7562,361.961,192.755,141.434,405.695,193.736,179.624,118.275,874.533,234.88,140.269,690.71,129.892,133.562,515.321,0.269273,172.356,308.007,-69.2371,228.097,311.368,112.428,176.514,229.509
107,0,171.039,457.249,1139.7,145.353,182.638,1150.18,-44.4882,385.874,1209.96,-49.2119,281.894,1201.97,73.0331,516.584,862.018,34.0328,486.114,664.571,6.63304,473.907,461.77,-16.4585,412.142,238.483,-79.9337,361.765,192.723,138.237,405.615,193.676,179.789,117.814,875.959,236.347,140.517,692.387,136.948,133.575,513.847,14.576,172.144,302.28,-55.5218,227.573,301.949,130.982,176.46,230.11
108,0,170.069,457.016,1139.13,144.598,182.521,1150.66,-45.0962,385.809,1210.33,-49.8867,281.805,1202.63,71.2032,516.001,861.743,31.6926,485.564,664.475,3.90551,473.425,461.788,-19.5844,411.894,238.515,-83.1377,361.565,192.716,135.041,405.53,193.615,179.822,117.34,877.333,237.372,140.795,693.922,143.886,133.562,512.195,29.3268,171.865,296.394,-41.2253,226.96,292.373,149.678,176.471,230.638
109,0,169.108,456.744,1138.56,143.961,182.367,1151.14,-45.6623,385.628,1210.7,-50.4791,281.598,1203.31,69.3833,515.341,861.479,29.3876,484.952,664.386,1.20746,472.897,461.814,-22.7164,411.627,238.563,-86.3658,361.36,192.733,131.847,405.439,193.554,179.742,116.856,878.64,237.976,141.098,695.299,150.667,133.528,510.408,44.4201,171.531,290.462,-26.4407,226.278,282.8,168.368,176.554,231.119
110,0,168.164,456.434,1137.99,143.446,182.174,1151.61,-46.1823,385.332,1211.07,-50.985,281.273,1204,67.5781,514.609,861.227,27.1187,484.282,664.302,-1.46267,472.328,461.847,-25.8545,411.344,238.626,-89.6147,361.152,192.771,128.658,405.344,193.494,179.568,116.364,879.861,238.176,141.426,696.503,157.246,133.479,508.523,59.7376,171.156,284.589,-11.2849,225.545,273.38,186.903,176.713,231.574
111,0,167.242,456.085,1137.41,143.057,181.942,1152.07,-46.6519,384.922,1211.43,-51.4007,280.831,1204.69,65.7922,513.81,860.985,24.8861,483.558,664.223,-4.107,471.721,461.885,-28.9992,411.047,238.702,-92.8804,360.938,192.828,125.471,405.246,193.434,179.317,115.869,880.982,237.997,141.773,697.521,163.577,133.422,506.579,75.1464,170.756,278.874,4.10358,224.782,264.257,205.137,176.951,232.015
112,0,166.35,455.699,1136.84,142.799,181.669,1152.52,-47.0674,384.398,1211.78,-51.7229,280.274,1205.38,64.0297,512.95,860.75,22.6896,482.784,664.148,-6.72791,471.083,461.927,-32.151,410.737,238.79,-96.1588,360.718,192.899,122.286,405.145,193.375,179.007,115.375,881.987,237.46,142.136,698.345,169.61,133.364,504.611,90.501,170.348,273.401,19.5677,224.01,255.557,222.923,177.269,232.443
113,0,165.493,455.276,1136.27,142.674,181.357,1152.94,-47.4252,383.762,1212.11,-51.949,279.605,1206.05,62.2949,512.035,860.521,20.5293,481.966,664.075,-9.32784,470.418,461.971,-35.3104,410.418,238.887,-99.4456,360.491,192.979,119.101,405.044,193.317,178.652,114.884,882.863,236.591,142.509,698.967,175.297,133.311,502.648,105.647,169.947,268.24,34.9357,223.25,247.392,240.12,177.665,232.844
114,0,164.678,454.817,1135.69,142.685,181.004,1153.33,-47.722,383.016,1212.42,-52.077,278.825,1206.7,60.5919,511.073,860.296,18.4051,481.107,664.005,-11.9089,469.73,462.016,-38.478,410.091,238.992,-102.737,360.257,193.063,115.915,404.944,193.26,178.266,114.403,883.597,235.413,142.887,699.385,180.587,133.268,500.715,120.425,169.569,263.446,50.0263,222.521,239.85,256.591,178.136,233.197
115,0,163.912,454.322,1135.12,142.832,180.609,1153.69,-47.9549,382.164,1212.7,-52.1053,277.937,1207.32,58.9252,510.07,860.072,16.3176,480.212,663.935,-14.4727,469.026,462.061,-41.6543,409.758,239.102,-106.029,360.015,193.147,112.723,404.847,193.205,177.863,113.933,884.179,233.952,143.263,699.597,185.433,133.24,498.832,134.674,169.231,259.056,64.6541,221.841,233.002,272.207,178.678,233.468
116,0,163.199,453.793,1134.55,143.115,180.174,1154.01,-48.1214,381.207,1212.96,-52.0331,276.945,1207.9,57.2996,509.034,859.847,14.2676,479.285,663.866,-17.0201,468.308,462.107,-44.8395,409.421,239.216,-109.32,359.765,193.227,109.523,404.754,193.151,177.455,113.48,884.602,232.23,143.63,699.605,189.79,133.23,497.01,148.236,168.945,255.091,78.6357,221.224,226.893,286.847,179.284,233.617
117,0,162.546,453.231,1133.99,143.536,179.697,1154.29,-48.2193,380.15,1213.18,-51.8601,275.853,1208.45,55.7204,507.971,859.62,12.2569,478.33,663.796,-19.5509,467.581,462.153,-48.0339,409.081,239.333,-112.607,359.507,193.3,106.312,404.666,193.097,177.05,113.045,884.86,230.273,143.98,699.414,193.617,133.24,495.257,160.965,168.722,251.554,91.7962,220.684,221.546,300.404,179.946,233.601
118,0,161.956,452.635,1133.44,144.092,179.179,1154.52,-48.2471,378.996,1213.36,-51.5866,274.664,1208.96,54.1931,506.888,859.388,10.2884,477.35,663.727,-22.0636,466.849,462.198,-51.2372,408.74,239.45,-115.889,359.242,193.364,103.085,404.586,193.043,176.656,112.631,884.953,228.1,144.305,699.031,196.88,133.268,493.574,172.724,168.571,248.434,103.975,220.228,216.964,312.783,180.655,233.376
119,0,161.434,452.008,1132.9,144.781,178.619,1154.72,-48.2035,377.75,1213.51,-51.2138,273.383,1209.42,52.7242,505.793,859.15,8.36567,476.347,663.657,-24.5556,466.114,462.245,-54.449,408.399,239.568,-119.168,358.971,193.42,99.8416,404.514,192.986,176.28,112.239,884.88,225.734,144.595,698.467,199.552,133.315,491.96,183.396,168.497,245.709,115.033,219.861,213.125,323.91,181.399,232.902
120,0,160.985,451.35,1132.37,145.599,178.019,1154.86,-48.088,376.416,1213.61,-50.7434,272.015,1209.83,51.3204,504.691,858.905,6.49364,475.326,663.588,-27.0228,465.379,462.293,-57.6686,408.057,239.687,-122.443,358.694,193.47,96.5781,404.451,192.927,175.925,111.869,884.648,223.194,144.841,697.734,201.613,133.375,490.408,192.886,168.501,243.345,124.855,219.585,209.992,333.728,182.168,232.147
121,0,160.61,450.662,1131.87,146.544,177.377,1154.97,-47.9002,375,1213.68,-50.1778,270.566,1210.19,49.989,503.589,858.653,4.67837,474.286,663.521,-29.4597,464.645,462.344,-60.8945,407.715,239.809,-125.715,358.414,193.516,93.2931,404.397,192.862,175.594,111.519,884.264,220.496,145.035,696.847,203.052,133.443,488.911,201.12,168.582,241.301,133.356,219.396,207.51,342.202,182.948,231.093
122,0,160.312,449.943,1131.4,147.609,176.695,1155.02,-47.6408,373.507,1213.71,-49.5201,269.039,1210.49,48.7378,502.491,858.393,2.92714,473.23,663.455,-31.8594,463.914,462.4,-64.1253,407.372,239.936,-128.986,358.132,193.564,89.9858,404.352,192.79,175.286,111.185,883.739,217.659,145.168,695.821,203.868,133.512,487.46,208.055,168.736,239.532,140.483,219.287,205.613,349.322,183.725,229.733
123,0,160.093,449.195,1130.95,148.789,175.972,1155.04,-47.3108,371.942,1213.71,-48.7741,267.441,1210.75,47.5747,501.401,858.127,1.24838,472.16,663.392,-34.2136,463.186,462.464,-67.3586,407.027,240.071,-132.258,357.849,193.621,86.6564,404.316,192.712,175,110.864,883.088,214.696,145.229,694.675,204.069,133.573,486.045,213.672,168.953,237.993,146.218,219.25,204.226,355.099,184.486,228.079
124,0,159.954,448.418,1130.54,150.076,175.209,1155.01,-46.9116,370.312,1213.67,-47.9442,265.777,1210.96,46.508,500.323,857.856,-0.348317,471.077,663.334,-36.5131,462.461,462.538,-70.5917,406.68,240.22,-135.531,357.566,193.696,83.3055,404.287,192.624,174.731,110.549,882.325,211.622,145.212,693.428,203.673,133.619,484.66,217.984,169.225,236.639,150.576,219.272,203.269,359.57,185.216,226.158
125,0,159.894,447.611,1130.17,151.464,174.407,1154.94,-46.4456,368.621,1213.59,-47.0354,264.052,1211.11,45.5459,499.26,857.582,-1.85234,469.98,663.283,-38.7474,461.74,462.624,-73.8214,406.329,240.387,-138.806,357.283,193.797,79.935,404.264,192.527,174.473,110.233,881.47,208.45,145.109,692.101,202.706,133.637,483.298,221.028,169.537,235.43,153.602,219.339,202.661,362.791,185.902,224.011
126,0,159.914,446.774,1129.84,152.943,173.565,1154.85,-45.9155,366.875,1213.49,-46.0534,262.272,1211.23,44.6965,498.213,857.308,-3.25212,468.873,663.239,-40.9053,461.02,462.726,-77.044,405.973,240.58,-142.083,357.002,193.936,76.5474,404.244,192.422,174.218,109.908,880.543,205.193,144.914,690.715,201.203,133.618,481.956,222.868,169.877,234.33,155.372,219.439,202.323,364.84,186.53,221.692
127,0,160.01,445.908,1129.57,154.504,172.683,1154.72,-45.3249,365.081,1213.36,-45.0043,260.443,1211.3,43.9676,497.182,857.037,-4.5353,467.754,663.206,-42.9752,460.303,462.847,-80.2552,405.613,240.805,-145.361,356.722,194.124,73.1457,404.225,192.309,173.958,109.563,879.563,201.863,144.623,689.291,199.207,133.553,480.634,223.586,170.229,233.31,155.986,219.555,202.181,365.811,187.089,219.265
128,0,160.182,445.011,1129.35,156.138,171.763,1154.56,-44.6776,363.244,1213.22,-43.8948,258.569,1211.34,43.3667,496.168,856.773,-5.68885,466.626,663.183,-44.9447,459.587,462.989,-83.4502,405.246,241.072,-148.637,356.443,194.372,69.734,404.204,192.189,173.682,109.189,878.551,198.471,144.231,687.849,196.767,133.43,479.335,223.287,170.579,232.35,155.564,219.674,202.172,365.812,187.57,216.799
129,0,160.425,444.082,1129.2,157.834,170.804,1154.39,-43.9784,361.369,1213.06,-42.732,256.656,1211.34,42.9005,495.169,856.521,-6.69924,465.49,663.174,-46.8018,458.873,463.156,-86.6237,404.874,241.389,-151.91,356.164,194.692,66.3164,404.179,192.065,173.377,108.776,877.527,195.031,143.736,686.41,193.937,133.242,478.064,222.087,170.912,231.435,154.238,219.783,202.238,364.96,187.967,214.363
130,0,160.736,443.122,1129.11,159.58,169.807,1154.2,-43.2323,359.461,1212.89,-41.5234,254.709,1211.32,42.575,494.185,856.285,-7.55257,464.349,663.178,-48.5343,458.159,463.349,-89.7703,404.497,241.763,-155.176,355.884,195.095,62.8975,404.146,191.939,173.034,108.315,876.511,191.554,143.14,684.993,190.773,132.983,476.828,220.11,171.214,230.557,152.148,219.871,202.336,363.377,188.276,212.023
131,0,161.11,442.13,1129.09,161.367,168.772,1154,-42.4451,357.525,1212.71,-40.2767,252.732,1211.27,42.3956,493.212,856.071,-8.23475,463.205,663.197,-50.1305,457.446,463.571,-92.884,404.117,242.203,-158.432,355.604,195.592,59.4824,404.103,191.816,172.638,107.795,875.52,188.053,142.444,683.616,187.335,132.646,475.636,217.485,171.476,229.714,149.437,219.929,202.43,361.186,188.496,209.837
132,0,161.541,441.104,1129.15,163.182,167.699,1153.79,-41.623,355.566,1212.54,-39,250.729,1211.21,42.3666,492.249,855.883,-8.73164,462.061,663.232,-51.5791,456.737,463.823,-95.9587,403.736,242.716,-161.673,355.324,196.192,56.0759,404.049,191.696,172.181,107.21,874.569,184.544,141.651,682.294,183.681,132.229,474.499,214.34,171.688,228.908,146.242,219.952,202.498,358.506,188.629,207.853
133,0,162.024,440.044,1129.29,165.014,166.59,1153.58,-40.7726,353.587,1212.37,-37.7014,248.705,1211.14,42.4917,491.292,855.726,-9.02918,460.921,663.283,-52.8696,456.031,464.106,-98.9883,403.358,243.308,-164.896,355.045,196.906,52.683,403.98,191.584,171.649,106.551,873.671,181.039,140.767,681.041,179.868,131.733,473.424,210.797,171.844,228.146,142.694,219.934,202.524,355.449,188.682,206.108
134,0,162.551,438.95,1129.51,166.853,165.444,1153.37,-39.9009,351.591,1212.22,-36.3893,246.663,1211.05,42.7735,490.339,855.605,-9.11354,459.79,663.348,-53.9921,455.332,464.422,-101.967,402.986,243.986,-168.097,354.768,197.74,49.3081,403.897,191.483,171.036,105.816,872.837,177.553,139.798,679.869,175.952,131.158,472.423,206.972,171.939,227.432,138.91,219.875,202.502,352.117,188.662,204.622
135,0,163.115,437.822,1129.82,168.685,164.263,1153.17,-39.0152,349.583,1212.08,-35.0719,244.606,1210.97,43.2141,489.387,855.524,-8.97118,458.674,663.428,-54.9378,454.642,464.768,-104.888,402.627,244.753,-171.272,354.497,198.701,45.9557,403.8,191.394,170.333,105,872.073,174.103,138.754,678.785,171.983,130.509,471.502,202.965,171.975,226.776,134.989,219.776,202.432,348.6,188.579,203.404
136,0,163.708,436.659,1130.2,170.502,163.048,1152.97,-38.1233,347.563,1211.96,-33.7575,242.536,1210.88,43.8145,488.434,855.486,-8.58901,457.579,663.52,-55.6984,453.966,465.146,-107.747,402.287,245.612,-174.42,354.236,199.797,42.6294,403.688,191.32,169.535,104.104,871.384,170.704,137.644,677.796,168.006,129.794,470.666,198.864,171.953,226.182,131.018,219.642,202.318,344.975,188.443,202.448
137,0,164.322,435.461,1130.67,172.292,161.8,1152.79,-37.2328,345.535,1211.86,-32.4542,240.457,1210.81,44.5756,487.477,855.495,-7.95441,456.511,663.623,-56.2667,453.309,465.554,-110.538,401.971,246.566,-177.538,353.991,201.03,39.3326,403.563,191.261,168.64,103.127,870.771,167.371,136.479,676.905,164.062,129.021,469.919,194.744,171.877,225.655,127.062,219.478,202.168,341.304,188.268,201.74
138,0,164.949,434.23,1131.23,174.045,160.52,1152.61,-36.3518,343.499,1211.79,-31.1699,238.37,1210.74,45.4975,486.516,855.552,-7.05535,455.479,663.734,-56.636,452.674,465.99,-113.255,401.688,247.615,-180.625,353.768,202.406,36.0679,403.427,191.218,167.648,102.075,870.234,164.12,135.269,676.113,160.185,128.201,469.261,190.66,171.754,225.198,123.171,219.29,201.993,337.634,188.065,201.253
139,0,165.578,432.967,1131.86,175.752,159.21,1152.44,-35.4882,341.458,1211.74,-29.9123,236.276,1210.68,46.5802,485.549,855.659,-5.88041,454.489,663.852,-56.8004,452.069,466.453,-115.894,401.444,248.76,-183.678,353.578,203.928,32.8373,403.282,191.191,166.563,100.952,869.768,160.967,134.027,675.418,156.403,127.346,468.69,186.657,171.593,224.809,119.377,219.088,201.8,334.001,187.846,200.956
140,0,166.202,431.672,1132.58,177.404,157.873,1152.29,-34.65,339.41,1211.73,-28.6887,234.179,1210.63,47.8234,484.577,855.816,-4.41889,453.552,663.973,-56.7541,451.5,466.941,-118.45,401.248,250,-186.696,353.429,205.6,29.6423,403.13,191.178,165.39,99.7644,869.369,157.925,132.764,674.817,152.74,126.468,468.201,182.762,171.403,224.487,115.701,218.878,201.601,330.428,187.62,200.814
141,0,166.81,430.348,1133.37,178.994,156.51,1152.15,-33.845,337.358,1211.74,-27.506,232.077,1210.59,49.227,483.602,856.023,-2.66084,452.674,664.096,-56.492,450.972,467.455,-120.919,401.107,251.336,-189.677,353.331,207.427,26.4836,402.974,191.177,164.137,98.522,869.03,155.006,131.491,674.304,149.213,125.579,467.788,178.992,171.193,224.226,112.147,218.67,201.402,326.928,187.399,200.789
142,0,167.394,428.996,1134.22,180.513,155.125,1152.02,-33.0807,335.301,1211.78,-26.3708,229.973,1210.57,50.7905,482.626,856.279,-0.597126,451.866,664.217,-56.0088,450.493,467.992,-123.293,401.026,252.769,-192.615,353.294,209.414,23.3615,402.817,191.187,162.817,97.2336,868.743,152.223,130.218,673.871,145.834,124.693,467.442,175.353,170.972,224.019,108.714,218.471,201.211,323.504,187.189,200.846
143,0,167.945,427.621,1135.15,181.957,153.72,1151.9,-32.3645,333.239,1211.85,-25.2892,227.868,1210.57,52.514,481.651,856.582,1.78043,451.135,664.336,-55.2994,450.069,468.553,-125.569,401.013,254.299,-195.506,353.329,211.568,20.2757,402.662,191.203,161.442,95.9093,868.499,149.585,128.956,673.511,142.612,123.819,467.154,171.843,170.75,223.856,105.391,218.286,201.032,320.157,186.995,200.952
144,0,168.454,426.225,1136.12,183.319,152.299,1151.79,-31.7033,331.172,1211.94,-24.2667,225.762,1210.57,54.3971,480.683,856.93,4.47899,450.49,664.451,-54.3584,449.706,469.139,-127.737,401.071,255.93,-198.339,353.445,213.899,17.2251,402.511,191.222,160.027,94.5596,868.29,147.098,127.712,673.214,139.55,122.967,466.914,168.453,170.533,223.73,102.163,218.121,200.868,316.879,186.823,201.077
145,0,168.913,424.811,1137.15,184.594,150.866,1151.69,-31.1035,329.1,1212.06,-23.3084,223.655,1210.59,56.4396,479.725,857.32,7.50454,449.94,664.563,-53.1803,449.411,469.753,-129.79,401.203,257.667,-201.103,353.648,216.42,14.2079,402.365,191.239,158.589,93.1947,868.108,144.768,126.493,672.97,136.651,122.144,466.711,165.169,170.327,223.63,99.0142,217.977,200.72,313.662,186.674,201.199
146,0,169.314,423.385,1138.23,185.779,149.423,1151.59,-30.5712,327.023,1212.2,-22.4188,221.55,1210.62,58.6412,478.785,857.75,10.8618,449.491,664.672,-51.7593,449.189,470.397,-131.717,401.411,259.517,-203.782,353.944,219.145,11.2211,402.226,191.248,157.145,91.8247,867.946,142.597,125.306,672.772,133.91,121.356,466.535,161.978,170.136,223.548,95.9255,217.856,200.588,310.496,186.549,201.297
147,0,169.648,421.949,1139.34,186.871,147.976,1151.49,-30.1117,324.942,1212.35,-21.6019,219.447,1210.66,61.001,477.869,858.217,14.5538,449.15,664.78,-50.0893,449.046,471.077,-133.505,401.693,261.488,-206.354,354.333,222.092,8.26113,402.093,191.245,155.712,90.4588,867.795,140.583,124.154,672.608,131.325,120.607,466.377,158.863,169.962,223.473,92.8804,217.756,200.472,307.371,186.446,201.361
148,0,169.911,420.509,1140.47,187.867,146.528,1151.39,-29.7297,322.856,1212.52,-20.8609,217.346,1210.71,63.5173,476.984,858.72,18.5823,448.924,664.891,-48.1641,448.985,471.799,-135.138,402.047,263.591,-208.795,354.813,225.283,5.32284,401.966,191.223,154.305,89.1055,867.651,138.722,123.041,672.471,128.887,119.897,466.229,155.81,169.804,223.4,89.864,217.674,200.369,304.278,186.364,201.381
149,0,170.094,419.069,1141.62,188.766,145.084,1151.29,-29.4293,320.766,1212.7,-20.1988,215.25,1210.77,66.1877,476.137,859.254,22.9466,448.817,665.009,-45.9772,449.01,472.57,-136.601,402.467,265.839,-211.074,355.379,228.741,2.4001,401.842,191.178,152.939,87.772,867.507,137.009,121.967,672.352,126.588,119.226,466.083,152.803,169.661,223.322,86.864,217.606,200.277,301.209,186.299,201.355
150,0,170.194,417.634,1142.78,189.567,143.648,1151.19,-29.2138,318.674,1212.89,-19.6178,213.159,1210.82,69.0083,475.335,859.82,27.6444,448.833,665.139,-43.5227,449.123,473.398,-137.871,402.946,268.246,-213.159,356.019,232.491,-0.514224,401.719,191.106,151.629,86.4646,867.362,135.433,120.932,672.245,124.416,118.591,465.935,149.832,169.53,223.234,83.8712,217.546,200.196,298.157,186.247,201.283
151,0,170.206,416.209,1143.95,190.271,142.224,1151.07,-29.0857,316.581,1213.07,-19.1196,211.076,1210.88,71.9737,474.587,860.416,32.6708,448.973,665.29,-40.7948,449.325,474.293,-138.929,403.475,270.826,-215.012,356.717,236.559,-3.42786,401.591,191.005,150.382,85.1883,867.211,133.981,119.936,672.143,122.359,117.988,465.78,146.887,169.407,223.134,80.8792,217.488,200.123,295.12,186.204,201.17
152,0,170.126,414.798,1145.1,190.877,140.817,1150.95,-29.0469,314.488,1213.26,-18.7053,209.002,1210.94,75.0766,473.898,861.042,38.0182,449.239,665.47,-37.7885,449.616,475.265,-139.748,404.043,273.594,-216.593,357.455,240.968,-6.34847,401.455,190.875,149.208,83.947,867.052,132.639,118.977,672.042,120.401,117.413,465.614,143.961,169.287,223.02,77.8845,217.425,200.056,292.094,186.164,201.02
153,0,169.952,413.407,1146.24,191.386,139.431,1150.82,-29.0984,312.399,1213.44,-18.3755,206.941,1211,78.3074,473.276,861.696,43.6765,449.629,665.687,-34.5001,449.995,476.325,-140.306,404.637,276.563,-217.862,358.207,245.74,-9.28263,401.304,190.722,148.109,82.7433,866.886,131.389,118.053,671.936,118.526,116.86,465.438,141.049,169.166,222.892,74.8861,217.352,199.995,289.078,186.125,200.842
154,0,169.682,412.04,1147.36,191.8,138.071,1150.68,-29.2405,310.315,1213.61,-18.1304,204.894,1211.05,81.6543,472.726,862.381,49.6326,450.141,665.952,-30.927,450.46,477.482,-140.575,405.245,279.745,-218.778,358.949,250.892,-12.2345,401.132,190.553,147.087,81.579,866.71,130.211,117.16,671.824,116.717,116.324,465.249,138.146,169.039,222.749,71.8846,217.263,199.939,286.073,186.081,200.643
155,0,169.316,410.702,1148.45,192.12,136.739,1150.52,-29.4727,308.24,1213.77,-17.9696,202.864,1211.1,85.103,472.252,863.096,55.8702,450.771,666.275,-27.0688,451.005,478.746,-140.532,405.853,283.149,-219.301,359.65,256.433,-15.2043,400.936,190.383,146.136,80.4549,866.525,129.086,116.296,671.703,114.954,115.799,465.049,135.253,168.903,222.596,68.8823,217.155,199.887,283.078,186.029,200.43
156,0,168.853,409.395,1149.5,192.349,135.44,1150.36,-29.7938,306.178,1213.92,-17.8923,200.856,1211.14,88.6369,471.857,863.843,62.3699,451.512,666.666,-22.9271,451.626,480.126,-140.152,406.448,286.778,-219.395,360.284,262.363,-18.1864,400.711,190.231,145.25,79.3711,866.331,127.991,115.457,671.573,113.218,115.282,464.839,132.368,168.755,222.432,65.882,217.025,199.838,280.094,185.967,200.212
157,0,168.295,408.123,1150.51,192.49,134.176,1150.18,-30.202,304.133,1214.06,-17.8973,198.871,1211.18,92.2369,471.543,864.622,69.1091,452.355,667.136,-18.5062,452.316,481.627,-139.414,407.016,290.633,-219.03,360.821,268.672,-21.1672,400.458,190.121,144.418,78.3273,866.128,126.905,114.641,671.431,111.489,114.767,464.62,129.49,168.593,222.262,62.8869,216.872,199.793,277.123,185.892,199.994
158,0,167.644,406.89,1151.47,192.544,132.951,1149.98,-30.6948,302.108,1214.17,-17.983,196.915,1211.21,95.8819,471.31,865.434,76.0621,453.292,667.696,-13.8132,453.068,483.257,-138.301,407.546,294.708,-218.181,361.237,275.337,-24.1236,400.177,190.083,143.627,77.3227,865.917,125.805,113.845,671.279,109.747,114.253,464.395,126.619,168.417,222.088,59.9,216.695,199.751,274.164,185.803,199.783
159,0,166.903,405.698,1152.38,192.515,131.767,1149.78,-31.2691,300.11,1214.27,-18.1473,194.99,1211.23,99.5492,471.157,866.28,83.2001,454.311,668.353,-8.85789,453.872,485.015,-136.799,408.03,298.989,-216.832,361.509,282.322,-27.0209,399.875,190.149,142.86,76.3561,865.699,124.671,113.067,671.116,107.974,113.738,464.165,123.755,168.226,221.913,56.9239,216.498,199.711,271.219,185.7,199.582
160,0,166.075,404.55,1153.24,192.406,130.627,1149.55,-31.9215,298.142,1214.35,-18.388,193.101,1211.24,103.214,471.081,867.16,90.4914,455.398,669.117,-3.65351,454.719,486.903,-134.898,408.458,303.458,-214.973,361.623,289.576,-29.8117,399.561,190.355,142.101,75.4265,865.474,123.483,112.305,670.945,106.15,113.221,463.934,120.896,168.024,221.74,53.9604,216.283,199.673,268.285,185.582,199.394
161,0,165.164,403.447,1154.05,192.219,129.532,1149.32,-32.6477,296.209,1214.42,-18.7024,191.251,1211.24,106.852,471.078,868.072,97.9018,456.54,669.994,1.78387,455.598,488.917,-132.596,408.828,308.087,-212.607,361.569,297.033,-32.4352,399.249,190.738,141.33,74.5329,865.241,122.224,111.559,670.765,104.26,112.703,463.703,118.043,167.813,221.57,51.0103,216.055,199.635,265.363,185.452,199.222
162,0,164.177,402.389,1154.8,191.958,128.484,1149.08,-33.4434,294.317,1214.47,-19.0877,189.446,1211.23,110.438,471.141,869.017,105.395,457.721,670.988,7.43528,456.498,491.05,-129.893,409.136,312.841,-209.744,361.344,304.616,-34.8171,398.955,191.33,140.529,73.6743,865.001,120.878,110.829,670.577,102.291,112.185,463.474,115.191,167.596,221.406,48.0734,215.818,199.596,262.45,185.311,199.065
163,0,163.117,401.38,1155.49,191.626,127.484,1148.82,-34.3039,292.471,1214.5,-19.5408,187.688,1211.22,113.946,471.264,869.991,112.932,458.925,672.102,13.2791,457.406,493.291,-126.795,409.384,317.679,-206.402,360.955,312.231,-36.8708,398.7,192.16,139.681,72.85,864.754,119.434,110.114,670.384,100.23,111.671,463.249,112.34,167.377,221.249,45.1486,215.579,199.554,259.543,185.162,198.924
164,0,161.991,400.417,1156.13,191.225,126.532,1148.56,-35.2241,290.676,1214.53,-20.0582,185.983,1211.21,117.352,471.438,870.992,120.473,460.135,673.338,19.2915,458.311,495.627,-123.314,409.575,322.552,-202.608,360.416,319.778,-38.499,398.505,193.251,138.768,72.0597,864.5,117.882,109.417,670.186,98.0715,111.165,463.028,109.485,167.16,221.1,42.2339,215.344,199.51,256.64,185.007,198.797
165,0,160.805,399.502,1156.71,190.761,125.629,1148.28,-36.1987,288.936,1214.54,-20.6366,184.333,1211.18,120.634,471.655,872.017,127.978,461.334,674.694,25.4468,459.202,498.041,-119.465,409.715,327.406,-198.394,359.745,327.145,-39.5971,398.394,194.615,137.778,71.3033,864.239,116.217,108.739,669.984,95.8096,110.669,462.813,106.624,166.951,220.96,39.3264,215.117,199.46,253.738,184.849,198.683
166,0,159.564,398.635,1157.24,190.235,124.776,1148,-37.2225,287.257,1214.55,-21.2722,182.742,1211.16,123.77,471.905,873.061,135.406,462.505,676.166,31.7182,460.065,500.512,-115.264,409.812,332.178,-193.798,358.972,334.216,-40.0562,398.386,196.252,136.697,70.581,863.971,114.437,108.083,669.779,93.4442,110.188,462.605,103.753,166.752,220.827,36.4229,214.904,199.405,250.833,184.693,198.578
167,0,158.276,397.815,1157.73,189.65,123.973,1147.71,-38.2899,285.642,1214.55,-21.9612,181.215,1211.13,126.743,472.178,874.119,142.715,463.633,677.747,38.0784,460.89,503.016,-110.729,409.876,336.806,-188.857,358.125,340.873,-39.7682,398.501,198.151,135.519,69.8933,863.696,112.543,107.45,669.572,90.9781,109.728,462.404,100.869,166.568,220.702,33.5195,214.71,199.344,247.923,184.54,198.481
168,0,156.947,397.041,1158.17,189.011,123.218,1147.42,-39.3955,284.097,1214.55,-22.6995,179.753,1211.11,129.537,472.465,875.188,149.865,464.7,679.43,44.4997,461.666,505.528,-105.881,409.917,341.222,-183.611,357.242,347,-38.6301,398.754,200.286,134.239,69.241,863.415,110.541,106.845,669.364,88.4176,109.292,462.211,97.9694,166.401,220.585,30.6122,214.539,199.275,245.003,184.395,198.389
169,0,155.584,396.312,1158.56,188.319,122.513,1147.12,-40.5337,282.624,1214.55,-23.4831,178.361,1211.08,132.139,472.756,876.26,156.816,465.694,681.203,50.9554,462.385,508.019,-100.737,409.946,345.356,-178.096,356.355,352.483,-36.5489,399.153,202.619,132.854,68.6251,863.128,108.439,106.27,669.156,85.7724,108.884,462.024,95.0519,166.253,220.474,27.697,214.393,199.2,242.073,184.26,198.299
170,0,154.192,395.627,1158.92,187.58,121.857,1146.82,-41.6992,281.227,1214.56,-24.3079,177.041,1211.06,134.54,473.043,877.333,163.532,466.6,683.053,57.4198,463.036,510.461,-95.3134,409.976,349.14,-172.342,355.502,357.219,-33.4466,399.704,205.101,131.368,68.0469,862.836,106.248,105.73,668.947,83.0546,108.51,461.844,92.1146,166.127,220.369,24.77,214.275,199.119,239.128,184.137,198.208
171,0,152.778,394.986,1159.25,186.795,121.249,1146.52,-42.8866,279.908,1214.58,-25.1694,175.795,1211.04,136.735,473.317,878.4,169.977,467.406,684.967,63.8688,463.615,512.824,-89.6219,410.015,352.509,-166.375,354.714,361.115,-29.2633,400.403,207.675,129.786,67.5078,862.541,103.981,105.226,668.739,80.2788,108.173,461.672,89.1565,166.022,220.269,21.8278,214.185,199.032,236.167,184.029,198.114
172,0,151.348,394.388,1159.55,185.968,120.69,1146.21,-44.0905,278.671,1214.61,-26.0634,174.625,1211.03,138.721,473.572,879.458,176.117,468.104,686.927,70.2807,464.116,515.076,-83.6717,410.074,355.398,-160.21,354.02,364.09,-23.9607,401.242,210.274,128.117,67.0093,862.243,101.655,104.762,668.532,77.461,107.874,461.506,86.1772,165.938,220.172,18.8673,214.123,198.941,233.188,183.938,198.017
173,0,149.908,393.832,1159.83,185.104,120.178,1145.91,-45.3058,277.517,1214.65,-26.9854,173.533,1211.03,140.497,473.803,880.501,181.924,468.685,688.917,76.6361,464.534,517.19,-77.4671,410.161,357.752,-153.854,353.443,366.083,-17.5238,402.209,212.833,126.37,66.5529,861.944,99.2837,104.342,668.327,74.6182,107.618,461.347,83.177,165.875,220.079,15.8861,214.088,198.847,230.189,183.864,197.915
174,0,148.465,393.316,1160.09,184.204,119.714,1145.6,-46.5274,276.447,1214.71,-27.9309,172.52,1211.04,142.067,474.004,881.527,187.369,469.143,690.917,82.918,464.868,519.137,-71.0077,410.283,359.522,-147.307,353,367.047,-9.96147,403.286,215.285,124.559,66.1401,861.645,96.886,103.967,668.123,71.7676,107.405,461.194,80.1568,165.831,219.989,12.8822,214.078,198.751,227.171,183.807,197.807
175,0,147.022,392.842,1160.33,183.274,119.297,1145.3,-47.7504,275.462,1214.8,-28.8954,171.587,1211.05,143.437,474.174,882.532,192.43,469.474,692.908,89.1126,465.117,520.891,-64.2886,410.445,360.667,-140.555,352.703,366.956,-1.30553,404.454,217.568,122.698,65.7725,861.348,94.4786,103.64,667.921,68.9259,107.236,461.048,77.1181,165.802,219.901,9.85458,214.09,198.654,224.132,183.767,197.694
176,0,145.586,392.408,1160.57,182.316,118.927,1144.99,-48.97,274.564,1214.9,-29.8742,170.735,1211.08,144.612,474.31,883.513,197.087,469.676,694.871,95.2085,465.284,522.43,-57.3004,410.649,361.157,-133.578,352.555,365.802,8.39109,405.692,219.628,120.802,65.4514,861.055,92.0779,103.363,667.722,66.1087,107.111,460.908,74.0626,165.788,219.816,6.80262,214.122,198.559,221.072,183.743,197.577
177,0,144.163,392.013,1160.8,181.335,118.604,1144.69,-50.1814,273.751,1215.03,-30.8626,169.964,1211.12,145.601,474.412,884.469,201.323,469.749,696.785,101.197,465.372,523.734,-50.0305,410.899,360.975,-126.349,352.556,363.598,19.0574,406.979,221.421,118.886,65.1782,860.768,89.6993,103.137,667.526,63.3301,107.029,460.775,70.9926,165.783,219.732,3.72642,214.168,198.465,217.991,183.733,197.456
178,0,142.756,391.66,1161.02,180.335,118.328,1144.39,-51.3799,273.025,1215.18,-31.8561,169.274,1211.18,146.414,474.481,885.397,205.127,469.694,698.633,107.072,465.383,524.789,-42.4632,411.193,360.115,-118.834,352.7,360.372,30.6082,408.295,222.917,116.965,64.9538,860.487,87.3565,102.962,667.333,60.6019,106.989,460.649,67.91,165.785,219.65,0.626597,214.226,198.373,214.889,183.736,197.334
179,0,141.372,391.347,1161.25,179.32,118.1,1144.09,-52.5611,272.384,1215.36,-32.85,168.666,1211.25,147.06,474.519,886.297,208.488,469.516,700.395,112.828,465.325,525.584,-34.5813,411.533,358.584,-110.996,352.975,356.175,42.9481,409.625,224.101,115.053,64.7791,860.214,85.061,102.838,667.144,57.9333,106.988,460.53,64.8171,165.79,219.57,-2.49577,214.292,198.283,211.767,183.75,197.211
180,0,140.015,391.075,1161.48,178.294,117.919,1143.79,-53.7203,271.829,1215.57,-33.8394,168.138,1211.33,147.549,474.53,887.165,211.404,469.218,702.053,118.463,465.204,526.113,-26.3674,411.915,356.403,-102.795,353.37,351.068,55.9764,410.951,224.969,113.163,64.655,859.951,82.8222,102.766,666.96,55.3307,107.023,460.419,61.7156,165.796,219.493,-5.63925,214.361,198.196,208.625,183.771,197.089
181,0,138.691,390.845,1161.71,177.262,117.786,1143.49,-54.8532,271.358,1215.8,-34.8198,167.691,1211.42,147.89,474.517,888.001,213.873,468.808,703.593,123.975,465.027,526.374,-17.8052,412.337,353.605,-94.1933,353.87,345.132,69.5907,412.263,225.537,111.305,64.5817,859.698,80.6466,102.743,666.781,52.7979,107.091,460.315,58.6072,165.798,219.417,-8.80219,214.43,198.11,205.465,183.798,196.97
182,0,137.404,390.659,1161.94,176.228,117.701,1143.19,-55.9552,270.971,1216.05,-35.7865,167.324,1211.53,148.091,474.484,888.802,215.897,468.293,704.999,129.363,464.802,526.372,-8.8811,412.797,350.236,-85.1567,354.46,338.458,83.6912,413.549,225.832,109.491,64.5596,859.456,78.5382,102.769,666.608,50.3353,107.187,460.22,55.4929,165.795,219.344,-11.9828,214.495,198.024,202.287,183.829,196.855
183,0,136.16,390.516,1162.18,175.197,117.663,1142.89,-57.0221,270.666,1216.32,-36.7349,167.037,1211.65,148.162,474.436,889.566,217.485,467.681,706.258,134.626,464.537,526.115,0.414275,413.291,346.352,-75.6567,355.127,331.147,98.1829,414.801,225.893,107.725,64.5887,859.224,76.4982,102.841,666.44,47.9406,107.308,460.132,52.3735,165.784,219.272,-15.1792,214.553,197.938,199.092,183.861,196.744
184,0,134.963,390.418,1162.42,174.173,117.674,1142.59,-58.0493,270.442,1216.61,-37.6604,166.829,1211.78,148.108,474.377,890.291,218.644,466.982,707.36,139.761,464.24,525.616,10.0843,413.816,342.02,-65.6737,355.858,323.31,112.979,416.009,225.77,106.015,64.6686,859.004,74.5248,102.958,666.279,45.609,107.449,460.053,49.2491,165.764,219.204,-18.3896,214.602,197.85,195.882,183.892,196.637
185,0,133.821,390.367,1162.66,173.161,117.733,1142.29,-59.0326,270.3,1216.92,-38.5584,166.7,1211.91,147.936,474.313,890.971,219.391,466.206,708.297,144.767,463.918,524.892,20.1249,414.368,337.315,-55.1992,356.643,315.062,127.999,417.164,225.519,104.362,64.799,858.795,72.6143,103.116,666.125,43.3331,107.605,459.982,46.1195,165.734,219.137,-21.6125,214.639,197.758,192.656,183.921,196.536
186,0,132.737,390.363,1162.9,172.166,117.841,1141.99,-59.9673,270.238,1217.24,-39.4246,166.649,1212.06,147.652,474.249,891.603,219.74,465.362,709.061,149.639,463.579,523.964,30.523,414.943,332.317,-44.2376,357.474,306.524,143.172,418.257,225.199,102.768,64.9792,858.595,70.7602,103.313,665.977,41.1035,107.773,459.919,42.9838,165.693,219.073,-24.8462,214.664,197.663,189.418,183.946,196.439
187,0,131.719,390.407,1163.14,171.193,117.996,1141.68,-60.8493,270.255,1217.56,-40.2547,166.676,1212.2,147.261,474.188,892.182,219.712,464.463,709.65,154.372,463.229,522.854,41.2554,415.535,327.11,-32.8086,358.345,297.818,158.432,419.275,224.871,101.23,65.2084,858.404,68.9545,103.546,665.836,38.9092,107.948,459.865,39.8409,165.641,219.011,-28.0897,214.674,197.561,186.168,183.966,196.346
188,0,130.771,390.501,1163.37,170.247,118.199,1141.37,-61.674,270.352,1217.89,-41.0445,166.781,1212.35,146.768,474.134,892.702,219.329,463.519,710.06,158.958,462.874,521.588,52.2876,416.141,321.782,-20.9479,359.252,289.063,173.721,420.203,224.588,99.7468,65.4857,858.222,67.1875,103.811,665.703,36.7381,108.127,459.819,36.6892,165.58,218.951,-31.3419,214.67,197.454,182.906,183.981,196.255
189,0,129.9,390.646,1163.59,169.332,118.45,1141.05,-62.4371,270.527,1218.22,-41.7899,166.964,1212.5,146.178,474.092,893.159,218.615,462.541,710.292,163.388,462.52,520.19,63.5731,416.755,316.416,-8.70856,360.192,280.378,188.979,421.027,224.398,98.3127,65.81,858.045,65.4486,104.106,665.577,34.5773,108.306,459.781,33.527,165.51,218.893,-34.6022,214.652,197.341,179.634,183.989,196.167
190,0,129.113,390.841,1163.8,168.452,118.746,1140.73,-63.1343,270.78,1218.54,-42.487,167.224,1212.64,145.496,474.065,893.544,217.598,461.54,710.348,167.648,462.17,518.689,75.0534,417.371,311.095,3.83902,361.162,271.874,204.148,421.728,224.339,96.9219,66.1802,857.874,63.7265,104.427,665.457,32.4136,108.484,459.75,30.3522,165.434,218.837,-37.8702,214.621,197.221,176.353,183.991,196.08
191,0,128.415,391.089,1164,167.613,119.089,1140.39,-63.7614,271.112,1218.86,-43.1322,167.562,1212.77,144.728,474.055,893.853,216.306,460.527,710.232,171.725,461.829,517.109,86.6572,417.982,305.896,16.6074,362.159,263.658,219.165,422.287,224.433,95.5675,66.595,857.706,62.01,104.772,665.344,30.2342,108.657,459.727,27.1629,165.354,218.784,-41.146,214.577,197.095,173.062,183.985,195.994
192,0,127.813,391.388,1164.17,166.82,119.476,1140.05,-64.3142,271.523,1219.15,-43.7219,167.977,1212.89,143.882,474.064,894.08,214.767,459.515,709.951,175.603,461.497,515.475,98.3022,418.581,300.886,29.4931,363.18,255.823,233.961,422.687,224.687,94.2419,67.0531,857.538,60.2882,105.139,665.236,28.0271,108.827,459.712,23.957,165.271,218.733,-44.4296,214.523,196.965,169.764,183.971,195.908
193,0,127.312,391.74,1164.31,166.075,119.907,1139.7,-64.7888,272.012,1219.42,-44.2529,168.47,1212.99,142.965,474.095,894.218,213.011,458.512,709.511,179.263,461.179,513.809,109.895,419.159,296.125,42.3786,364.219,248.454,248.459,422.912,225.092,92.9375,67.5531,857.37,58.5511,105.526,665.134,25.7813,108.991,459.703,20.7325,165.189,218.684,-47.7218,214.461,196.831,166.457,183.95,195.822
194,0,126.919,392.142,1164.43,165.383,120.38,1139.35,-65.1813,272.58,1219.66,-44.722,169.04,1213.08,141.988,474.15,894.263,211.068,457.531,708.921,182.686,460.875,512.13,121.334,419.707,291.661,55.1346,365.27,241.618,262.574,422.946,225.622,91.6469,68.0938,857.199,56.79,105.93,665.035,23.4873,109.151,459.702,17.4876,165.109,218.638,-51.0232,214.393,196.694,163.141,183.92,195.736
195,0,126.64,392.597,1164.51,164.749,120.894,1138.98,-65.4883,273.227,1219.88,-45.1265,169.688,1213.14,140.961,474.228,894.211,208.967,456.581,708.191,185.851,460.586,510.456,132.51,420.216,287.53,67.6235,366.322,235.372,276.211,422.782,226.234,90.3633,68.6736,857.024,54.9981,106.35,664.94,21.1376,109.307,459.708,14.2208,165.033,218.596,-54.335,214.32,196.557,159.816,183.882,195.65
196,0,126.48,393.101,1164.56,164.175,121.447,1138.59,-65.7065,273.954,1220.05,-45.4638,170.414,1213.18,139.897,474.332,894.059,206.737,455.672,707.331,188.737,460.313,508.798,143.311,420.677,283.756,79.703,367.364,229.753,289.268,422.413,226.876,89.0811,69.291,856.841,53.1704,106.788,664.846,18.7268,109.461,459.72,10.9305,164.965,218.557,-57.6584,214.245,196.42,156.48,183.835,195.565
197,0,126.444,393.654,1164.56,163.666,122.037,1138.2,-65.833,274.76,1220.19,-45.7318,171.218,1213.18,138.81,474.463,893.806,204.404,454.815,706.352,191.323,460.056,507.167,153.623,421.081,280.349,91.2306,368.383,224.781,301.638,421.844,227.482,87.796,69.9448,856.648,51.3045,107.241,664.753,16.2519,109.616,459.739,7.61578,164.905,218.521,-60.9949,214.171,196.286,153.134,183.78,195.482
198,0,126.537,394.255,1164.53,163.224,122.664,1137.8,-65.8652,275.646,1220.27,-45.9283,172.098,1213.15,137.714,474.62,893.452,201.993,454.018,705.266,193.59,459.818,505.567,163.334,421.418,277.308,102.068,369.364,220.461,313.211,421.082,227.983,86.5056,70.6333,856.445,49.4002,107.711,664.659,13.7125,109.773,459.763,4.27584,164.855,218.489,-64.3458,214.099,196.155,149.776,183.717,195.399
199,0,126.762,394.902,1164.46,162.852,123.325,1137.39,-65.8012,276.611,1220.32,-46.0519,173.056,1213.09,136.627,474.807,892.998,199.526,453.291,704.084,195.517,459.598,504.002,172.338,421.681,274.619,112.086,370.29,216.779,323.88,420.146,228.311,85.2093,71.3552,856.228,47.4602,108.199,664.562,11.1106,109.937,459.792,0.910309,164.816,218.461,-67.7127,214.032,196.029,146.405,183.647,195.319
200,0,127.123,395.594,1164.34,162.552,124.018,1136.97,-65.6394,277.655,1220.31,-46.1013,174.089,1212.99,135.564,475.022,892.448,197.023,452.641,702.818,197.09,459.399,502.471,180.541,421.864,272.26,121.169,371.147,213.706,333.545,419.058,228.4,83.9088,72.1089,855.995,45.4896,108.707,664.461,8.45105,110.111,459.825,-2.48079,164.789,218.437,-71.097,213.97,195.908,143.021,183.569,195.242
201,0,127.622,396.327,1164.17,162.326,124.742,1136.54,-65.3787,278.777,1220.25,-46.0756,175.198,1212.84,134.543,475.268,891.808,194.501,452.077,701.48,198.293,459.221,500.971,187.857,421.963,270.198,129.22,371.92,211.198,342.118,417.85,228.199,82.6084,72.8931,855.745,43.4962,109.237,664.354,5.74111,110.297,459.862,-5.89698,164.774,218.415,-74.5,213.915,195.791,139.622,183.484,195.167
202,0,128.26,397.101,1163.96,162.176,125.495,1136.11,-65.0187,279.976,1220.13,-45.9742,176.381,1212.66,133.578,475.547,891.084,191.973,451.605,700.081,199.117,459.068,499.497,194.22,421.974,268.395,136.163,372.596,209.201,349.529,416.559,227.667,81.3142,73.7065,855.475,41.49,109.793,664.239,2.9905,110.501,459.901,-9.33725,164.772,218.395,-77.9225,213.867,195.679,136.207,183.394,195.095
203,0,129.039,397.913,1163.72,162.103,126.277,1135.67,-64.5597,281.251,1219.96,-45.797,177.636,1212.43,132.686,475.859,890.284,189.451,451.232,698.632,199.555,458.943,498.042,199.58,421.898,266.809,141.947,373.163,207.65,355.729,415.226,226.784,80.0351,74.5478,855.184,39.4836,110.377,664.114,0.211134,110.727,459.94,-12.8001,164.782,218.377,-81.3652,213.828,195.571,132.778,183.298,195.025
204,0,129.956,398.761,1163.43,162.108,127.085,1135.23,-64.0026,282.601,1219.74,-45.5444,178.962,1212.16,131.88,476.207,889.419,186.941,450.964,697.145,199.604,458.849,496.6,203.908,421.738,265.395,146.548,373.616,206.473,360.696,413.892,225.553,78.7817,75.4161,854.87,37.491,110.993,663.979,-2.58311,110.978,459.979,-16.2832,164.804,218.361,-84.8279,213.797,195.464,129.334,183.199,194.958
205,0,131.012,399.643,1163.1,162.19,127.918,1134.79,-63.3489,284.022,1219.47,-45.217,180.357,1211.84,131.171,476.593,888.499,184.449,450.805,695.632,199.267,458.79,495.164,207.197,421.499,264.111,149.968,373.951,205.597,364.435,412.601,223.993,77.5666,76.3104,854.532,35.528,111.646,663.831,-5.37675,111.259,460.016,-19.7839,164.838,218.344,-88.3099,213.774,195.359,125.876,183.096,194.892
206,0,132.202,400.556,1162.74,162.35,128.777,1134.36,-62.6008,285.514,1219.15,-44.8161,181.818,1211.49,130.567,477.019,887.537,181.976,450.758,694.101,198.551,458.772,493.729,209.46,421.189,262.915,152.238,374.169,204.95,366.979,411.392,222.147,76.4039,77.2302,854.168,33.6115,112.34,663.67,-8.15302,111.573,460.05,-23.2985,164.884,218.327,-91.8099,213.76,195.254,122.406,182.992,194.826
207,0,133.523,401.5,1162.35,162.587,129.66,1133.93,-61.7615,287.073,1218.78,-44.3433,183.342,1211.09,130.075,477.487,886.545,179.522,450.827,692.565,197.468,458.798,492.29,210.733,420.819,261.77,153.413,374.275,204.461,368.39,410.299,220.072,75.3086,78.1751,853.779,31.7591,113.078,663.495,-10.8944,111.927,460.079,-26.8226,164.942,218.31,-95.3253,213.754,195.146,118.925,182.887,194.761
208,0,134.969,402.471,1161.93,162.898,130.566,1133.51,-60.8345,288.696,1218.38,-43.8007,184.927,1210.65,129.697,478,885.537,177.085,451.011,691.033,196.035,458.874,490.845,211.071,420.401,260.647,153.572,374.278,204.068,368.757,409.351,217.839,74.2965,79.1452,853.365,29.9885,113.867,663.306,-13.5827,112.323,460.104,-30.3511,165.01,218.293,-98.853,213.756,195.036,115.435,182.784,194.695
209,0,136.535,403.468,1161.5,163.283,131.495,1133.11,-59.8244,290.379,1217.93,-43.1908,186.57,1210.19,129.431,478.559,884.526,174.662,451.313,689.516,194.272,459.005,489.393,210.544,419.95,259.52,152.81,374.191,203.718,368.189,408.565,215.525,73.3834,80.1407,852.924,28.3175,114.708,663.102,-16.2003,112.766,460.124,-33.8782,165.09,218.276,-102.389,213.766,194.924,111.94,182.684,194.628
210,0,138.212,404.491,1161.05,163.739,132.448,1132.73,-58.7361,292.121,1217.45,-42.5168,188.267,1209.68,129.274,479.167,883.525,172.249,451.729,688.024,192.205,459.195,487.937,209.24,419.481,258.375,151.24,374.03,203.365,366.81,407.952,213.208,72.5844,81.1624,852.46,26.763,115.607,662.884,-18.7294,113.26,460.139,-37.3973,165.182,218.262,-105.927,213.785,194.811,108.441,182.588,194.559
211,0,139.993,405.537,1160.59,164.262,133.424,1132.37,-57.5756,293.915,1216.95,-41.7821,190.014,1209.16,129.217,479.825,882.546,169.84,452.258,686.566,189.862,459.448,486.48,207.255,419.01,257.203,148.981,373.815,202.979,364.754,407.512,210.963,71.9139,82.211,851.974,25.3408,116.566,662.653,-21.1539,113.809,460.151,-40.9013,165.287,218.253,-109.462,213.814,194.699,104.944,182.499,194.489
212,0,141.866,406.607,1160.13,164.85,134.423,1132.03,-56.349,295.76,1216.42,-40.9909,191.808,1208.61,129.248,480.534,881.601,167.433,452.896,685.151,187.274,459.768,485.03,204.691,418.553,256.004,146.157,373.563,202.538,362.16,407.236,208.854,71.3844,83.288,851.469,24.0654,117.588,662.412,-23.4584,114.417,460.162,-44.3827,165.405,218.253,-112.986,213.854,194.592,101.451,182.419,194.416
213,0,143.823,407.699,1159.67,165.497,135.447,1131.73,-55.0634,297.65,1215.88,-40.1474,193.645,1208.04,129.356,481.294,880.699,165.023,453.638,683.789,184.475,460.157,483.594,201.655,418.126,254.782,142.893,373.294,202.034,359.162,407.109,206.932,71.0067,84.3948,850.947,22.9496,118.674,662.161,-25.6298,115.085,460.173,-47.8335,165.537,218.265,-116.493,213.908,194.495,97.9671,182.349,194.342
214,0,145.851,408.813,1159.22,166.199,136.496,1131.46,-53.7261,299.581,1215.33,-39.2568,195.522,1207.46,129.523,482.106,879.85,162.608,454.477,682.488,181.499,460.615,482.184,198.251,417.74,253.55,139.307,373.028,201.467,355.882,407.109,205.235,70.7888,85.5328,850.415,22.0042,119.825,661.904,-27.6568,115.815,460.189,-51.2461,165.685,218.294,-119.974,213.977,194.417,94.4957,182.292,194.266
215,0,147.938,409.95,1158.79,166.951,137.571,1131.24,-52.3451,301.55,1214.78,-38.3244,197.435,1206.87,129.733,482.967,879.061,160.188,455.405,681.255,178.381,461.141,480.809,194.58,417.409,252.322,135.507,372.781,200.845,352.432,407.211,203.783,70.7363,86.7038,849.877,21.2376,121.04,661.643,-29.5305,116.61,460.212,-54.6128,165.851,218.348,-123.421,214.063,194.367,91.0412,182.249,194.189
216,0,150.073,411.108,1158.37,167.747,138.671,1131.06,-50.9286,303.552,1214.23,-37.3559,199.38,1206.29,129.968,483.877,878.337,157.764,456.414,680.096,175.156,461.735,479.481,190.732,417.14,251.116,131.588,372.568,200.183,348.903,407.39,202.581,70.8515,87.9092,849.339,20.6564,122.316,661.382,-31.2444,117.468,460.248,-57.9263,166.034,218.433,-126.828,214.17,194.354,87.6076,182.222,194.112
217,0,152.241,412.289,1157.98,168.581,139.799,1130.92,-49.4851,305.584,1213.7,-36.3576,201.353,1205.71,130.209,484.832,877.681,155.338,457.494,679.018,171.857,462.393,478.211,186.792,416.939,249.95,127.633,372.398,199.5,345.368,407.619,201.62,71.1339,89.1503,848.809,20.2649,123.651,661.125,-32.7944,118.389,460.301,-61.1803,166.235,218.556,-130.187,214.297,194.391,84.199,182.211,194.035
218,0,154.43,413.493,1157.61,169.445,140.955,1130.84,-48.0234,307.641,1213.18,-35.3361,203.351,1205.14,130.441,485.828,877.097,152.916,458.634,678.025,168.516,463.109,477.01,182.827,416.808,248.843,123.707,372.28,198.817,341.88,407.875,200.881,71.5799,90.428,848.293,20.0652,125.04,660.875,-34.1793,119.369,460.377,-64.3691,166.454,218.724,-133.493,214.447,194.491,80.8188,182.218,193.96
219,0,156.626,414.72,1157.28,170.334,142.139,1130.81,-46.5524,309.722,1212.69,-34.2981,205.372,1204.59,130.646,486.863,876.582,150.503,459.824,677.119,165.164,463.878,475.887,178.895,416.746,247.811,119.858,372.215,198.154,338.475,408.136,200.337,72.1829,91.7426,847.801,20.0577,126.475,660.635,-35.3995,120.403,460.479,-67.4884,166.689,218.946,-136.74,214.62,194.668,77.4706,182.242,193.887
220,0,158.816,415.971,1156.97,171.238,143.352,1130.84,-45.0809,311.821,1212.22,-33.2508,207.412,1204.07,130.811,487.93,876.136,148.108,461.053,676.302,161.826,464.692,474.849,175.041,416.751,246.868,116.121,372.204,197.53,335.169,408.387,199.954,72.9339,93.0938,847.339,20.2414,127.951,660.41,-36.4579,121.486,460.613,-70.5351,166.939,219.228,-139.927,214.814,194.935,74.1573,182.284,193.818
221,0,160.988,417.247,1156.7,172.15,144.595,1130.93,-43.6178,313.937,1211.79,-32.2016,209.468,1203.57,130.924,489.025,875.756,145.741,462.309,675.576,158.529,465.543,473.903,171.294,416.814,246.023,112.515,372.242,196.962,331.968,408.613,199.699,73.8215,94.4804,846.917,20.6139,129.457,660.202,-37.3587,122.61,460.784,-73.5075,167.201,219.578,-143.05,215.028,195.306,70.8817,182.34,193.753
222,0,163.129,418.547,1156.47,173.062,145.868,1131.08,-42.1718,316.066,1211.39,-31.1581,211.539,1203.11,130.977,490.143,875.436,143.413,463.581,674.938,155.292,466.42,473.05,167.674,416.929,245.285,109.049,372.322,196.46,328.865,408.807,199.539,74.8329,95.9004,846.541,21.1723,130.983,660.015,-38.1073,123.765,460.993,-76.4052,167.469,220.002,-146.112,215.256,195.793,67.6459,182.411,193.694
223,0,165.226,419.872,1156.27,173.966,147.17,1131.29,-40.7516,318.207,1211.02,-30.1279,213.621,1202.68,130.964,491.276,875.172,141.135,464.859,674.386,152.135,467.316,472.294,164.191,417.084,244.654,105.718,372.433,196.033,325.847,408.962,199.443,75.9541,97.3508,846.219,21.9132,132.518,659.85,-38.7098,124.94,461.245,-79.2293,167.738,220.505,-149.113,215.493,196.408,64.4517,182.494,193.642
224,0,167.269,421.222,1156.11,174.852,148.501,1131.57,-39.3652,320.357,1210.7,-29.1189,215.714,1202.29,130.881,492.422,874.956,138.918,466.132,673.916,149.073,468.221,471.631,160.842,417.269,244.131,102.513,372.567,195.683,322.896,409.077,199.386,77.1705,98.8275,845.957,22.8337,134.05,659.708,-39.1721,126.124,461.541,-81.9822,168.001,221.092,-152.058,215.731,197.159,61.3006,182.584,193.598
225,0,169.246,422.596,1155.98,175.713,149.861,1131.9,-38.0207,322.515,1210.42,-28.1386,217.815,1201.95,130.728,493.573,874.781,136.775,467.393,673.524,146.116,469.124,471.06,157.622,417.473,243.709,99.4186,372.711,195.41,319.992,409.151,199.346,78.4681,100.326,845.76,23.9314,135.566,659.592,-39.5,127.303,461.881,-84.6671,168.251,221.765,-154.952,215.961,198.054,58.1936,182.679,193.562
226,0,171.15,423.994,1155.89,176.539,151.248,1132.3,-36.7254,324.679,1210.18,-27.1949,219.924,1201.65,130.508,494.725,874.641,134.716,468.632,673.202,143.276,470.018,470.574,154.517,417.685,243.382,96.4143,372.854,195.209,317.118,409.185,199.308,79.8335,101.839,845.633,25.2053,137.054,659.5,-39.6977,128.464,462.265,-87.2882,168.48,222.527,-157.8,216.173,199.099,55.1312,182.775,193.536
227,0,172.97,425.414,1155.82,177.322,152.661,1132.76,-35.4864,326.848,1209.98,-26.2953,222.038,1201.39,130.225,495.875,874.528,132.751,469.843,672.944,140.557,470.894,470.168,151.512,417.895,243.139,93.4796,372.989,195.072,314.254,409.185,199.261,81.255,103.361,845.578,26.6558,138.499,659.431,-39.7684,129.594,462.692,-89.85,168.68,223.379,-160.608,216.356,200.297,52.1136,182.866,193.519
228,0,174.7,426.855,1155.78,178.054,154.099,1133.27,-34.31,329.021,1209.82,-25.4472,224.158,1201.19,129.886,497.019,874.435,130.888,471.021,672.743,137.964,471.745,469.831,148.587,418.096,242.968,90.5935,373.108,194.991,311.388,409.153,199.199,82.723,104.884,845.595,28.2853,139.891,659.384,-39.7131,130.679,463.159,-92.3568,168.842,224.322,-163.382,216.499,201.651,49.1404,182.95,193.512
229,0,176.333,428.314,1155.76,178.725,155.558,1133.84,-33.2023,331.197,1209.7,-24.6576,226.282,1201.02,129.498,498.153,874.356,129.135,472.162,672.591,135.498,472.565,469.556,145.726,418.281,242.858,87.7361,373.204,194.956,308.508,409.096,199.119,84.2305,106.4,845.685,30.0983,141.217,659.356,-39.5304,131.706,463.663,-94.8127,168.96,225.355,-166.127,216.591,203.162,46.2104,183.021,193.512
230,0,177.863,429.79,1155.76,179.329,157.036,1134.46,-32.1684,333.375,1209.62,-23.9333,228.41,1200.9,129.071,499.278,874.284,127.496,473.262,672.478,133.156,473.35,469.333,142.911,418.446,242.795,84.8897,373.277,194.955,305.606,409.019,199.023,85.7734,107.9,845.845,32.1016,142.465,659.345,-39.2167,132.664,464.202,-97.2207,169.027,226.479,-168.845,216.622,204.833,43.3218,183.076,193.52
231,0,179.288,431.279,1155.77,179.858,158.529,1135.13,-31.213,335.555,1209.56,-23.2806,230.54,1200.82,128.613,500.39,874.214,125.973,474.32,672.396,130.937,474.095,469.15,140.125,418.588,242.766,82.0389,373.326,194.98,302.678,408.926,198.911,87.3508,109.377,846.07,34.3042,143.625,659.348,-38.7659,133.542,464.772,-99.5825,169.038,227.696,-171.536,216.586,206.665,40.4717,183.112,193.532
232,0,180.602,432.778,1155.79,180.305,160.036,1135.83,-30.3402,337.735,1209.54,-22.7054,232.673,1200.78,128.133,501.49,874.142,124.566,475.336,672.338,128.835,474.798,468.999,137.355,418.708,242.76,79.1714,373.353,195.019,299.72,408.823,198.786,88.9652,110.821,846.358,36.7172,144.69,659.36,-38.1691,134.331,465.372,-101.898,168.99,229.007,-174.199,216.477,208.663,37.6561,183.124,193.544
233,0,181.805,434.283,1155.82,180.663,161.551,1136.58,-29.5532,339.916,1209.54,-22.213,234.808,1200.77,127.642,502.577,874.063,123.274,476.31,672.296,126.843,475.457,468.869,134.59,418.806,242.766,76.2778,373.361,195.067,296.732,408.716,198.652,90.6221,112.226,846.7,39.3533,145.652,659.38,-37.4155,135.024,465.998,-104.164,168.882,230.415,-176.827,216.294,210.836,34.8694,183.112,193.554
234,0,182.895,435.789,1155.85,180.927,163.071,1137.35,-28.8548,342.096,1209.55,-21.8082,236.943,1200.79,127.146,503.653,873.976,122.09,477.243,672.262,124.952,476.071,468.752,131.823,418.885,242.774,73.3514,373.356,195.115,293.718,408.608,198.511,92.3297,113.583,847.092,42.2269,146.505,659.404,-36.4921,135.617,466.652,-106.377,168.716,231.928,-179.407,216.036,213.192,32.1044,183.074,193.555
235,0,183.873,437.294,1155.87,181.091,164.592,1138.14,-28.2471,344.273,1209.59,-21.4951,239.079,1200.83,126.652,504.717,873.876,121.007,478.137,672.229,123.152,476.641,468.639,129.047,418.949,242.777,70.3883,373.343,195.159,290.678,408.502,198.366,94.0991,114.885,847.525,45.3529,147.245,659.431,-35.3843,136.106,467.334,-108.528,168.494,233.552,-181.926,215.71,215.748,29.3522,183.009,193.542
236,0,184.738,438.791,1155.89,181.152,166.108,1138.95,-27.7315,346.448,1209.63,-21.2771,241.213,1200.89,126.165,505.771,873.764,120.017,478.996,672.192,121.432,477.166,468.524,126.261,419,242.769,67.3872,373.327,195.196,287.618,408.402,198.22,95.943,116.128,847.993,48.7467,147.872,659.459,-34.0766,136.49,468.048,-110.607,168.222,235.3,-184.363,215.324,218.522,26.6022,182.92,193.511
237,0,185.492,440.277,1155.9,181.105,167.617,1139.76,-27.3087,348.618,1209.68,-21.1569,243.345,1200.97,125.688,506.814,873.638,119.107,479.822,672.146,119.78,477.649,468.4,123.462,419.043,242.744,64.3485,373.312,195.223,284.54,408.309,198.074,97.8754,117.306,848.488,52.423,148.384,659.489,-32.553,136.772,468.799,-112.601,167.908,237.186,-186.694,214.89,221.537,23.8422,182.806,193.457
238,0,186.137,441.747,1155.89,180.948,169.112,1140.59,-26.9791,350.782,1209.74,-21.1365,245.473,1201.06,125.224,507.847,873.497,118.264,480.618,672.086,118.182,478.091,468.262,120.653,419.081,242.7,61.2747,373.303,195.238,281.449,408.224,197.928,99.9107,118.416,849.005,56.3953,148.784,659.523,-30.7974,136.954,469.595,-114.494,167.561,239.225,-188.89,214.425,224.82,21.0588,182.673,193.375
239,0,186.676,443.196,1155.86,180.681,170.59,1141.4,-26.7423,352.938,1209.79,-21.217,247.595,1201.15,124.772,508.87,873.342,117.473,481.387,672.009,116.625,478.494,468.108,117.834,419.118,242.634,58.1695,373.302,195.243,278.349,408.148,197.783,102.063,119.455,849.539,60.6751,149.074,659.564,-28.7946,137.042,470.447,-116.266,167.193,241.435,-190.918,213.948,228.401,18.2386,182.523,193.265
240,0,187.111,444.619,1155.82,180.301,172.046,1142.21,-26.5975,355.084,1209.84,-21.3988,249.71,1201.24,124.33,509.882,873.173,116.718,482.132,671.912,115.094,478.859,467.935,115.008,419.157,242.545,55.0377,373.31,195.235,275.243,408.079,197.641,104.346,120.423,850.085,65.271,149.26,659.616,-26.5308,137.042,471.365,-117.898,166.815,243.838,-192.745,213.478,232.308,15.3686,182.361,193.126
241,0,187.446,446.013,1155.75,179.81,173.476,1143,-26.5432,357.216,1209.88,-21.6815,251.815,1201.32,123.894,510.883,872.99,115.983,482.857,671.794,113.576,479.189,467.742,112.179,419.199,242.435,51.8849,373.325,195.217,272.135,408.016,197.501,106.769,121.318,850.641,70.1881,149.348,659.687,-23.9943,136.962,472.364,-119.366,166.441,246.452,-194.335,213.038,236.571,12.438,182.195,192.964
242,0,187.685,447.374,1155.66,179.208,174.876,1143.77,-26.5778,359.334,1209.91,-22.064,253.907,1201.39,123.459,511.871,872.793,115.25,483.563,671.655,112.056,479.487,467.528,109.348,419.245,242.304,48.717,373.347,195.189,269.026,407.958,197.364,109.341,122.142,851.205,75.4273,149.345,659.784,-21.1756,136.813,473.457,-120.648,166.085,249.298,-195.651,212.651,241.215,9.43974,182.029,192.785
243,0,187.831,448.698,1155.54,178.499,176.242,1144.51,-26.6991,361.432,1209.93,-22.5443,255.984,1201.45,123.019,512.844,872.584,114.503,484.254,671.493,110.52,479.754,467.294,106.518,419.297,242.153,45.5402,373.373,195.151,265.92,407.902,197.232,112.066,122.896,851.777,80.9848,149.26,659.916,-18.0687,136.603,474.659,-121.718,165.758,252.391,-196.657,212.339,246.258,6.37232,181.872,192.601
244,0,187.889,449.982,1155.4,177.684,177.571,1145.22,-26.9044,363.509,1209.93,-23.1197,258.042,1201.49,122.566,513.801,872.364,113.725,484.932,671.31,108.955,479.995,467.043,103.689,419.353,241.987,42.3603,373.399,195.105,262.818,407.847,197.103,114.945,123.583,852.36,86.8516,149.103,660.095,-14.6705,136.346,475.984,-122.554,165.474,255.745,-197.321,212.123,251.712,3.24194,181.729,192.429
245,0,187.861,451.224,1155.23,176.768,178.861,1145.9,-27.1908,365.561,1209.92,-23.787,260.079,1201.52,122.091,514.738,872.132,112.899,485.598,671.107,107.348,480.211,466.776,100.863,419.413,241.807,39.1828,373.421,195.052,259.721,407.789,196.98,117.973,124.207,852.955,93.0133,148.883,660.331,-10.982,136.051,477.445,-123.129,165.244,259.367,-197.614,212.02,257.576,0.0644376,181.608,192.288
246,0,187.753,452.421,1155.03,175.756,180.108,1146.54,-27.5553,367.583,1209.89,-24.5422,262.09,1201.52,121.587,515.654,871.89,112.01,486.255,670.886,105.687,480.406,466.496,98.039,419.478,241.616,36.0126,373.437,194.992,256.63,407.727,196.864,121.141,124.77,853.566,99.4498,148.612,660.635,-7.0078,135.731,479.052,-123.423,165.077,263.257,-197.512,212.046,263.834,-3.13282,181.513,192.204
247,0,187.567,453.573,1154.81,174.654,181.311,1147.14,-27.9943,369.573,1209.84,-25.3808,264.072,1201.5,121.044,516.547,871.639,111.045,486.902,670.648,103.963,480.582,466.205,95.2153,419.544,241.418,32.8538,373.442,194.927,253.545,407.659,196.753,124.435,125.276,854.197,106.136,148.301,661.021,-2.75633,135.397,480.811,-123.412,164.983,267.408,-196.995,212.211,270.458,-6.30938,181.451,192.204
248,0,187.307,454.677,1154.57,173.467,182.468,1147.69,-28.5043,371.525,1209.78,-26.2977,266.021,1201.46,120.453,517.415,871.379,109.991,487.541,670.396,102.166,480.744,465.908,92.3903,419.613,241.216,29.7096,373.435,194.857,250.466,407.585,196.649,127.836,125.73,854.853,113.04,147.96,661.498,1.7602,135.06,482.727,-123.076,164.966,271.801,-196.052,212.52,277.401,-9.41071,181.424,192.316
249,0,186.977,455.735,1154.3,172.202,183.578,1148.21,-29.0814,373.437,1209.7,-27.2875,267.933,1201.4,119.805,518.255,871.112,108.838,488.173,670.132,100.288,480.895,465.607,89.5613,419.683,241.011,26.5821,373.414,194.783,247.392,407.504,196.552,131.321,126.136,855.539,120.127,147.601,662.077,6.52616,134.732,484.796,-122.397,165.03,276.407,-194.677,212.976,284.598,-12.3678,181.432,192.57
250,0,186.58,456.745,1154.01,170.867,184.641,1148.68,-29.7218,375.304,1209.62,-28.3443,269.803,1201.32,119.094,519.067,870.837,107.575,488.797,669.859,98.3225,481.037,465.306,86.7255,419.752,240.808,23.4725,373.378,194.706,244.324,407.416,196.46,134.863,126.497,856.258,127.355,147.234,662.767,11.5229,134.423,487.013,-121.356,165.176,281.188,-192.868,213.573,291.968,-15.0975,181.476,192.995
251,0,186.12,457.708,1153.7,169.469,185.656,1149.11,-30.4214,377.123,1209.52,-29.4619,271.627,1201.23,118.31,519.85,870.556,106.198,489.414,669.58,96.2656,481.175,465.007,83.8799,419.821,240.607,20.3809,373.329,194.626,241.26,407.32,196.373,138.43,126.817,857.015,134.682,146.87,663.576,16.7292,134.142,489.364,-119.938,165.403,286.091,-190.633,214.302,299.414,-17.5042,181.551,193.616
252,0,185.598,458.626,1153.38,168.015,186.624,1149.5,-31.1761,378.889,1209.41,-30.6341,273.403,1201.12,117.447,520.603,870.27,104.699,490.023,669.296,94.1139,481.31,464.714,81.0217,419.89,240.411,17.3066,373.267,194.545,238.199,407.219,196.29,141.991,127.101,857.813,142.06,146.519,664.508,22.1219,133.898,491.831,-118.126,165.706,291.057,-187.98,215.149,306.823,-19.4814,181.653,194.452
253,0,185.018,459.499,1153.04,166.515,187.545,1149.86,-31.9819,380.598,1209.3,-31.8545,275.124,1201.01,116.5,521.326,869.979,103.078,490.624,669.01,91.8658,481.445,464.428,78.1483,419.957,240.221,14.2482,373.195,194.463,235.143,407.114,196.209,145.51,127.35,858.653,149.438,146.189,665.567,27.6769,133.698,494.39,-115.908,166.078,296.012,-184.923,216.097,314.073,-20.9154,181.772,195.518
254,0,184.382,460.328,1152.68,164.976,188.421,1150.18,-32.8345,382.248,1209.19,-33.1164,276.789,1200.89,115.462,522.02,869.684,101.331,491.214,668.725,89.5217,481.584,464.152,75.2572,420.023,240.038,11.2035,373.116,194.38,232.088,407.005,196.129,148.952,127.569,859.538,156.766,145.889,666.753,33.3694,133.547,497.012,-113.267,166.51,300.88,-181.474,217.122,321.03,-21.6885,181.899,196.818
255,0,183.694,461.115,1152.31,163.406,189.251,1150.47,-33.7299,383.834,1209.07,-34.4134,278.392,1200.78,114.329,522.685,869.386,99.4611,491.794,668.442,87.083,481.726,463.888,72.3467,420.088,239.863,8.17004,373.033,194.298,229.036,406.896,196.05,152.283,127.758,860.467,163.993,145.626,668.063,39.1749,133.45,499.661,-110.189,166.993,305.573,-177.647,218.202,327.56,-21.6837,182.022,198.347
256,0,182.954,461.862,1151.93,161.813,190.038,1150.73,-34.664,385.354,1208.96,-35.7391,279.931,1200.66,113.097,523.322,869.087,97.47,492.36,668.164,84.5529,481.874,463.636,69.4154,420.151,239.695,5.14493,372.948,194.214,225.985,406.786,195.971,155.469,127.922,861.438,171.067,145.406,669.492,45.0704,133.409,502.302,-106.659,167.512,310.004,-173.452,219.31,333.525,-20.789,182.129,200.092
257,0,182.165,462.57,1151.54,160.205,190.784,1150.97,-35.6326,386.804,1208.86,-37.0873,281.402,1200.56,111.765,523.932,868.787,95.3624,492.912,667.891,81.9357,482.027,463.398,66.4623,420.213,239.536,2.12526,372.865,194.131,222.934,406.679,195.891,158.479,128.06,862.449,177.94,145.235,671.034,51.034,133.426,504.892,-102.66,168.055,314.083,-168.896,220.419,338.794,-18.9018,182.208,202.03
258,0,181.33,463.241,1151.14,158.589,191.488,1151.19,-36.632,388.184,1208.77,-38.4519,282.802,1200.48,110.331,524.515,868.487,93.144,493.445,667.625,79.2368,482.186,463.175,63.4869,420.273,239.384,-0.891866,372.786,194.046,219.882,406.575,195.81,161.287,128.176,863.498,184.564,145.115,672.677,57.0466,133.5,507.389,-98.1735,168.607,317.721,-163.98,221.503,343.247,-15.9335,182.245,204.126
259,0,180.451,463.876,1150.74,156.973,192.154,1151.4,-37.658,389.489,1208.69,-39.8271,284.13,1200.41,108.794,525.071,868.188,90.8219,493.958,667.367,76.4626,482.348,462.966,60.4891,420.33,239.24,-3.9092,372.714,193.961,216.827,406.476,195.729,163.868,128.269,864.58,190.895,145.05,674.409,63.0916,133.628,509.751,-93.181,169.152,320.837,-158.698,222.536,346.774,-11.8124,182.229,206.34
260,0,179.529,464.476,1150.34,155.362,192.782,1151.6,-38.7069,390.719,1208.63,-41.2075,285.383,1200.37,107.155,525.601,867.891,88.4043,494.447,667.118,73.6202,482.513,462.772,57.4691,420.384,239.104,-6.92929,372.648,193.873,213.769,406.382,195.649,166.203,128.341,865.691,196.894,145.04,676.216,69.1554,133.806,511.937,-87.6619,169.677,323.357,-153.037,223.493,349.285,-6.48723,182.152,208.627
261,0,178.567,465.043,1149.93,153.763,193.373,1151.8,-39.7749,391.872,1208.59,-42.5877,286.558,1200.36,105.416,526.104,867.596,85.9004,494.909,666.878,70.7172,482.677,462.592,54.4273,420.433,238.975,-9.95442,372.59,193.782,210.705,406.295,195.569,168.28,128.392,866.825,202.523,145.086,678.082,75.2273,134.029,513.907,-81.5953,170.167,325.216,-146.978,224.354,350.712,0.0714799,182.006,210.937
262,0,177.567,465.577,1149.52,152.183,193.929,1152,-40.8583,392.947,1208.57,-43.963,287.656,1200.39,103.581,526.579,867.304,83.3198,495.339,666.649,67.7616,482.837,462.427,51.3643,420.476,238.854,-12.9867,372.539,193.688,207.633,406.215,195.492,170.089,128.423,867.977,207.754,145.186,679.989,81.2997,134.288,515.627,-74.9596,170.609,326.366,-140.494,225.101,351.008,7.87038,181.789,213.219
263,0,176.532,466.079,1149.11,150.626,194.451,1152.2,-41.9535,393.944,1208.57,-45.3286,288.673,1200.45,101.654,527.024,867.015,80.6725,495.735,666.429,64.7616,482.991,462.275,48.2811,420.511,238.741,-16.0278,372.493,193.59,204.552,406.141,195.418,171.628,128.433,869.142,212.56,145.338,681.918,87.3672,134.576,517.066,-67.7345,170.991,326.773,-133.555,225.716,350.153,16.8935,181.498,215.426
264,0,175.464,466.548,1148.7,149.097,194.938,1152.41,-43.0568,394.861,1208.6,-46.6803,289.61,1200.55,99.6399,527.436,866.731,77.9689,496.092,666.221,61.7252,483.133,462.136,45.1785,420.536,238.634,-19.0797,372.451,193.488,201.459,406.075,195.347,172.897,128.423,870.315,216.922,145.538,683.852,93.4265,134.883,518.202,-59.901,171.303,326.421,-126.125,226.19,348.153,27.1031,181.137,217.515
265,0,174.365,466.984,1148.3,147.601,195.391,1152.63,-44.165,395.698,1208.66,-48.0142,290.467,1200.69,97.5471,527.813,866.45,75.2193,496.406,666.022,58.6603,483.26,462.009,42.0576,420.55,238.535,-22.1437,372.41,193.381,198.354,406.014,195.279,173.904,128.393,871.491,220.826,145.782,685.77,99.476,135.2,519.018,-51.4436,171.536,325.311,-118.168,226.515,345.04,38.4419,180.712,219.448
266,0,173.238,467.388,1147.89,146.142,195.81,1152.86,-45.2744,396.456,1208.74,-49.3265,291.242,1200.88,95.3836,528.152,866.174,72.4337,496.674,665.834,55.5742,483.367,461.894,38.9197,420.55,238.444,-25.2214,372.366,193.271,195.235,405.959,195.215,174.66,128.342,872.665,224.265,146.063,687.656,105.514,135.517,519.505,-42.351,171.685,323.465,-109.65,226.687,340.871,50.8347,180.231,221.199
267,0,172.086,467.757,1147.48,144.723,196.196,1153.11,-46.3817,397.134,1208.85,-50.6138,291.937,1201.11,93.1587,528.448,865.901,69.6218,496.892,665.655,52.474,483.45,461.789,35.7659,420.535,238.36,-28.3143,372.318,193.157,192.101,405.91,195.154,175.178,128.269,873.833,227.236,146.377,689.492,111.54,135.822,519.664,-32.6185,171.746,320.921,-100.539,226.706,335.726,64.1919,179.707,222.751
268,0,170.913,468.092,1147.08,143.349,196.546,1153.38,-47.4836,397.734,1208.99,-51.8728,292.551,1201.39,90.8831,528.697,865.632,66.7929,497.056,665.486,49.3658,483.506,461.695,32.5977,420.503,238.284,-31.4239,372.262,193.04,188.951,405.864,195.096,175.477,128.174,874.992,229.742,146.715,691.262,117.55,136.108,519.503,-22.2488,171.719,317.734,-90.8111,226.576,329.706,78.4113,179.153,224.097
269,0,169.722,468.39,1146.67,142.021,196.861,1153.66,-48.5766,398.255,1209.15,-53.1004,293.084,1201.7,88.5679,528.895,865.367,63.9556,497.165,665.327,46.2555,483.53,461.61,29.4164,420.452,238.215,-34.5516,372.195,192.923,185.786,405.822,195.038,175.577,128.056,876.136,231.793,147.071,692.95,123.54,136.366,519.037,-11.2546,171.604,313.978,-80.4512,226.307,322.93,93.3815,178.583,225.243
270,0,168.516,468.651,1146.26,140.744,197.139,1153.96,-49.6576,398.698,1209.34,-54.2936,293.538,1202.06,86.225,529.039,865.105,61.1177,497.215,665.176,43.148,483.521,461.534,26.2234,420.381,238.153,-37.6987,372.115,192.807,182.606,405.782,194.981,175.499,127.915,877.264,233.402,147.438,694.544,129.504,136.588,518.292,0.340479,171.405,309.738,-69.4569,225.909,315.531,108.984,178.012,226.202
271,0,167.298,468.873,1145.86,139.52,197.38,1154.28,-50.7232,399.063,1209.56,-55.4496,293.912,1202.45,83.8666,529.124,864.845,58.2864,497.206,665.034,40.0474,483.475,461.466,23.0202,420.289,238.099,-40.8664,372.022,192.693,179.411,405.743,194.922,175.265,127.751,878.371,234.587,147.808,696.033,135.431,136.769,517.296,12.5005,171.129,305.108,-57.8401,225.397,307.651,125.096,177.455,226.998
272,0,166.073,469.054,1145.45,138.351,197.581,1154.62,-51.77,399.352,1209.79,-56.5656,294.208,1202.88,81.505,529.146,864.588,55.468,497.135,664.899,36.9573,483.39,461.405,19.808,420.177,238.051,-44.0557,371.913,192.584,176.203,405.704,194.862,174.897,127.563,879.455,235.371,148.176,697.409,141.308,136.904,516.086,25.1759,170.784,300.191,-45.6292,224.789,299.44,141.59,176.925,227.661
273,0,164.845,469.192,1145.04,137.241,197.741,1154.97,-52.7947,399.564,1210.04,-57.6386,294.426,1203.34,79.1521,529.104,864.332,52.6682,497.004,664.772,33.8806,483.267,461.352,16.588,420.044,238.009,-47.2671,371.789,192.48,172.983,405.665,194.799,174.419,127.351,880.511,235.778,148.533,698.664,147.117,136.991,514.702,38.3031,170.379,295.096,-32.8703,224.104,291.047,158.339,176.434,228.223
274,0,163.619,469.288,1144.63,136.191,197.858,1155.33,-53.7939,399.701,1210.31,-58.666,294.567,1203.83,76.8196,528.994,864.077,49.8917,496.811,664.652,30.8197,483.105,461.305,13.3612,419.892,237.973,-50.5007,371.65,192.383,169.751,405.625,194.733,173.85,127.115,881.536,235.837,148.875,699.794,152.837,137.029,513.187,51.804,169.926,289.928,-19.6276,223.365,282.622,175.213,175.991,228.72
275,0,162.397,469.337,1144.22,135.206,197.932,1155.7,-54.7644,399.762,1210.59,-59.6447,294.631,1204.33,74.5183,528.816,863.823,47.1426,496.557,664.538,27.7763,482.905,461.264,10.1284,419.721,237.944,-53.7563,371.499,192.295,166.51,405.583,194.664,173.211,126.857,882.526,235.578,149.196,700.797,158.444,137.02,511.583,65.587,169.437,284.792,-5.98418,222.593,274.306,192.085,175.604,229.185
276,0,161.186,469.341,1143.8,134.287,197.96,1156.07,-55.7026,399.748,1210.88,-60.572,294.619,1204.86,72.2577,528.569,863.57,44.4243,496.246,664.43,24.7518,482.668,461.228,6.8902,419.533,237.919,-57.0333,371.335,192.215,163.26,405.539,194.591,172.521,126.576,883.477,235.032,149.492,701.671,163.907,136.966,509.935,79.5471,168.926,279.785,7.95975,221.813,266.231,208.825,175.277,229.645
277,0,159.989,469.296,1143.37,133.438,197.941,1156.45,-56.6052,399.659,1211.17,-61.4447,294.531,1205.39,70.0465,528.254,863.317,41.7396,495.878,664.328,21.7472,482.396,461.198,3.64702,419.33,237.9,-60.3303,371.162,192.144,160.002,405.494,194.515,171.794,126.275,884.383,234.232,149.76,702.416,169.198,136.871,508.283,93.5685,168.405,274.995,22.0877,221.047,258.517,225.307,175.011,230.122
278,0,158.812,469.204,1142.94,132.661,197.874,1156.82,-57.4687,399.494,1211.46,-62.2598,294.367,1205.92,67.8916,527.871,863.065,39.091,495.456,664.231,18.7634,482.093,461.172,0.398992,419.114,237.886,-63.6458,370.982,192.082,156.738,405.447,194.436,171.047,125.954,885.24,233.209,149.997,703.036,174.281,136.742,506.664,107.526,167.889,270.499,36.2693,220.316,251.268,241.406,174.808,230.629
279,0,157.659,469.062,1142.51,131.96,197.756,1157.19,-58.2896,399.255,1211.75,-63.0141,294.127,1206.46,65.7986,527.422,862.813,36.4803,494.984,664.138,15.8011,481.762,461.151,-2.85388,418.886,237.878,-66.978,370.798,192.028,153.468,405.4,194.355,170.29,125.615,886.041,231.993,150.203,703.532,179.124,136.585,505.11,121.287,167.39,266.357,50.3634,219.642,244.569,257.002,174.665,231.166
280,0,156.535,468.87,1142.06,131.339,197.589,1157.55,-59.0645,398.94,1212.03,-63.7045,293.812,1206.98,63.7713,526.912,862.562,33.9093,494.465,664.049,12.8608,481.406,461.133,-6.11171,418.65,237.874,-70.3247,370.612,191.981,150.193,405.353,194.272,169.535,125.26,886.781,230.615,150.376,703.909,183.691,136.407,503.647,134.717,166.92,262.614,64.2213,219.041,238.488,271.975,174.579,231.723
281,0,155.445,468.629,1141.61,130.8,197.369,1157.89,-59.79,398.549,1212.3,-64.3277,293.42,1207.5,61.8119,526.343,862.311,31.3794,493.903,663.963,9.94337,481.029,461.118,-9.3747,418.408,237.876,-73.6838,370.427,191.941,146.913,405.309,194.186,168.79,124.89,887.453,229.101,150.516,704.169,187.947,136.216,502.295,147.68,166.489,259.299,77.6909,218.528,233.07,286.216,174.549,232.279
282,0,154.394,468.337,1141.15,130.347,197.097,1158.21,-60.4627,398.083,1212.55,-64.8805,292.953,1207.99,59.9212,525.719,862.063,28.8922,493.301,663.881,7.04952,480.635,461.106,-12.6431,418.16,237.884,-77.053,370.243,191.907,143.627,405.268,194.099,168.061,124.506,888.051,227.475,150.625,704.318,191.859,136.021,501.064,160.045,166.108,256.423,90.6208,218.113,228.343,299.618,174.572,232.804
283,0,153.388,467.997,1140.68,129.983,196.773,1158.51,-61.0792,397.54,1212.79,-65.3597,292.409,1208.46,58.0984,525.045,861.817,26.4491,492.664,663.802,4.18031,480.227,461.096,-15.917,417.908,237.897,-80.4303,370.064,191.877,140.337,405.232,194.011,167.354,124.111,888.569,225.758,150.702,704.358,195.396,135.829,499.96,171.687,165.783,253.983,102.865,217.803,224.313,312.087,174.648,233.257
284,0,152.429,467.607,1140.21,129.712,196.397,1158.78,-61.6364,396.92,1213,-65.7623,291.788,1208.91,56.3418,524.325,861.574,24.052,491.995,663.725,1.33708,479.811,461.088,-19.1966,417.653,237.916,-83.8136,369.889,191.851,137.04,405.204,193.92,166.671,123.704,888.999,223.969,150.751,704.293,198.53,135.648,498.979,182.492,165.522,251.957,114.286,217.602,220.967,323.539,174.775,233.595
285,0,151.525,467.168,1139.72,129.537,195.967,1159.02,-62.1311,396.223,1213.19,-66.0853,291.089,1209.32,54.6485,523.565,861.334,21.7029,491.298,663.65,-1.4785,479.387,461.081,-22.4818,417.396,237.942,-87.2013,369.719,191.828,133.738,405.183,193.828,166.014,123.285,889.337,222.119,150.772,704.127,201.236,135.484,498.112,192.36,165.328,250.314,124.762,217.506,218.275,333.904,174.956,233.771
286,0,150.678,466.682,1139.23,129.462,195.485,1159.22,-62.5604,395.448,1213.35,-66.3261,290.314,1209.69,53.0155,522.77,861.098,19.4043,490.576,663.577,-4.26432,478.959,461.076,-25.7727,417.138,237.974,-90.5919,369.553,191.807,130.43,405.172,193.734,165.384,122.855,889.577,220.22,150.765,703.861,203.494,135.344,497.345,201.208,165.204,249.009,134.188,217.512,216.192,343.126,175.193,233.74
287,0,149.893,466.15,1138.74,129.487,194.952,1159.4,-62.9215,394.596,1213.47,-66.4822,289.46,1210.03,51.4391,521.943,860.867,17.1591,489.831,663.506,-7.01782,478.529,461.072,-29.0688,416.877,238.013,-93.9841,369.392,191.789,127.115,405.17,193.638,164.781,122.412,889.715,218.278,150.733,703.497,205.288,135.231,496.656,208.969,165.151,247.99,142.48,217.609,214.658,351.165,175.488,233.462
288,0,149.175,465.571,1138.24,129.617,194.367,1159.53,-63.212,393.666,1213.57,-66.5515,288.529,1210.33,49.9162,521.091,860.64,14.9709,489.066,663.435,-9.73588,478.099,461.068,-32.37,416.615,238.058,-97.377,369.233,191.772,123.792,405.178,193.54,164.203,121.955,889.746,216.295,150.676,703.038,206.608,135.148,496.024,215.602,165.169,247.2,149.576,217.788,213.605,358.003,175.844,232.906
289,0,148.528,464.947,1137.74,129.853,193.732,1159.63,-63.4296,392.658,1213.64,-66.5323,287.519,1210.58,48.4443,520.216,860.418,12.844,488.283,663.364,-12.4148,477.667,461.065,-35.6757,416.349,238.11,-100.77,369.075,191.757,120.46,405.196,193.441,163.648,121.482,889.669,214.271,150.593,702.483,207.447,135.097,495.422,221.081,165.255,246.578,155.443,218.034,212.956,363.637,176.261,232.052
290,0,147.954,464.278,1137.23,130.196,193.048,1159.69,-63.5725,391.573,1213.67,-66.4233,286.432,1210.79,47.0217,519.322,860.2,10.7834,487.483,663.293,-15.0504,477.235,461.063,-38.9853,416.08,238.17,-104.162,368.917,191.744,117.119,405.222,193.34,163.113,120.99,889.481,212.203,150.483,701.835,207.807,135.077,494.824,225.406,165.406,246.064,160.071,218.334,212.629,368.085,176.739,230.895
291,0,147.458,463.566,1136.73,130.646,192.314,1159.71,-63.6392,390.412,1213.66,-66.2238,285.267,1210.96,45.6483,518.412,859.987,8.79466,486.667,663.222,-17.6375,476.8,461.061,-42.2981,415.806,238.238,-107.553,368.757,191.734,113.767,405.256,193.238,162.595,120.476,889.183,210.087,150.346,701.095,207.693,135.086,494.205,228.596,165.617,245.603,163.478,218.671,212.542,371.382,177.274,229.442
292,0,147.041,462.811,1136.24,131.205,191.534,1159.69,-63.6284,389.175,1213.63,-65.9336,284.026,1211.09,44.3254,517.488,859.777,6.88445,485.835,663.15,-20.1707,476.362,461.061,-45.6133,415.527,238.314,-110.943,368.594,191.729,110.403,405.294,193.135,162.091,119.938,888.777,207.915,150.18,700.265,207.117,135.12,493.541,230.691,165.883,245.142,165.705,219.032,212.614,373.583,177.86,227.716
293,0,146.706,462.014,1135.75,131.87,190.706,1159.64,-63.5397,387.863,1213.56,-65.553,282.709,1211.18,43.0565,516.552,859.57,5.06006,484.986,663.075,-22.6435,475.917,461.062,-48.9296,415.243,238.4,-114.33,368.425,191.729,107.027,405.336,193.033,161.597,119.371,888.265,205.681,149.981,699.346,206.093,135.172,492.812,231.749,166.198,244.639,166.819,219.403,212.77,374.758,178.486,225.755
294,0,146.456,461.175,1135.28,132.642,189.832,1159.55,-63.3728,386.479,1213.46,-65.083,281.317,1211.23,41.8469,515.605,859.365,3.32961,484.119,662.998,-25.0491,475.462,461.064,-52.2455,414.952,238.496,-117.715,368.25,191.736,103.636,405.378,192.931,161.111,118.774,887.652,203.378,149.746,698.344,204.645,135.237,492.002,231.844,166.553,244.059,166.903,219.771,212.941,374.99,179.139,223.606
295,0,146.291,460.294,1134.81,133.516,188.914,1159.43,-63.128,385.023,1213.33,-64.5252,279.852,1211.25,40.7039,514.647,859.159,1.70199,483.233,662.918,-27.3797,474.994,461.068,-55.5594,414.654,238.604,-121.097,368.068,191.753,100.231,405.418,192.83,160.629,118.143,886.946,201,149.473,697.263,202.797,135.306,491.098,231.061,166.942,243.375,166.059,220.126,213.067,374.374,179.804,221.326
296,0,146.211,459.371,1134.37,134.491,187.951,1159.28,-62.8063,383.499,1213.18,-63.882,278.316,1211.23,39.6371,513.678,858.953,0.186814,482.326,662.835,-29.6273,474.509,461.075,-58.8688,414.35,238.726,-124.474,367.877,191.782,96.8108,405.454,192.729,160.148,117.478,886.154,198.541,149.158,696.109,200.581,135.369,490.096,229.497,167.357,242.574,164.4,220.46,213.101,373.012,180.464,218.977
297,0,146.217,458.405,1133.96,135.563,186.944,1159.11,-62.4091,381.908,1213,-63.1561,276.711,1211.18,38.6577,512.696,858.745,-1.20565,481.395,662.747,-31.783,474.003,461.084,-62.1709,414.038,238.863,-127.846,367.677,191.826,93.3765,405.482,192.63,159.666,116.778,885.286,196,148.797,694.891,198.031,135.417,488.994,227.256,167.788,241.649,162.045,220.766,213.007,371.011,181.103,216.623
298,0,146.309,457.398,1133.57,136.725,185.894,1158.92,-61.9384,380.253,1212.8,-62.3513,275.039,1211.11,37.7786,511.699,858.533,-2.46456,480.439,662.654,-33.8377,473.472,461.098,-65.4623,413.72,239.019,-131.211,367.468,191.892,89.9291,405.501,192.53,159.183,116.042,884.354,193.375,148.387,693.617,195.183,135.439,487.796,224.444,168.228,240.605,159.119,221.038,212.76,368.48,181.703,214.326
299,0,146.484,456.347,1133.22,137.973,184.801,1158.7,-61.3969,378.538,1212.58,-61.4716,273.303,1211.02,37.0141,510.686,858.317,-3.5786,479.455,662.556,-35.782,472.911,461.116,-68.7389,413.395,239.196,-134.567,367.25,191.983,86.4708,405.509,192.429,158.698,115.272,883.371,190.669,147.926,692.298,192.078,135.426,486.511,221.168,168.668,239.454,155.741,221.276,212.352,365.524,182.249,212.142
300,0,146.742,455.253,1132.9,139.301,183.665,1158.48,-60.7877,376.764,1212.35,-60.5217,271.506,1210.92,36.3792,509.654,858.095,-4.53607,478.441,662.453,-37.6063,472.317,461.14,-71.9962,413.064,239.398,-137.913,367.021,192.106,83.0045,405.503,192.327,158.211,114.469,882.35,187.886,147.411,690.947,188.756,135.367,485.155,217.53,169.1,238.213,152.027,221.476,211.783,362.243,182.73,210.119
301,0,147.078,454.115,1132.63,140.702,182.487,1158.25,-60.1146,374.937,1212.12,-59.5071,269.651,1210.8,35.8893,508.598,857.867,-5.32502,477.394,662.344,-39.301,471.687,461.171,-75.2289,412.727,239.629,-141.245,366.783,192.268,79.5341,405.482,192.222,157.723,113.638,881.305,185.035,146.841,689.577,185.259,135.255,483.743,213.629,169.515,236.907,148.083,221.64,211.066,358.73,183.136,208.295
302,0,147.491,452.932,1132.41,142.168,181.267,1158.01,-59.3818,373.059,1211.87,-58.4333,267.742,1210.67,35.5598,507.518,857.633,-5.93336,476.314,662.228,-40.8565,471.018,461.21,-78.4315,412.385,239.892,-144.563,366.536,192.478,76.0642,405.445,192.114,157.236,112.781,880.252,182.127,146.216,688.202,181.63,135.082,482.297,209.553,169.907,235.562,144.004,221.766,210.22,355.066,183.462,206.696
303,0,147.975,451.705,1132.23,143.69,180.004,1157.77,-58.5941,371.135,1211.63,-57.3066,265.782,1210.54,35.4055,506.407,857.394,-6.349,475.198,662.107,-42.2638,470.309,461.258,-81.5982,412.04,240.193,-147.863,366.28,192.745,72.6,405.391,192.002,156.752,111.904,879.204,179.176,145.536,686.836,177.907,134.841,480.837,205.381,170.268,234.208,139.868,221.858,209.274,351.322,183.706,205.335
304,0,148.526,450.431,1132.12,145.262,178.699,1157.53,-57.7568,369.167,1211.39,-56.1335,263.775,1210.41,35.44,505.265,857.151,-6.55995,474.047,661.98,-43.5142,469.559,461.317,-84.723,411.692,240.538,-151.144,366.015,193.079,69.1469,405.318,191.887,156.272,111.012,878.176,176.195,144.802,685.494,174.131,134.53,479.387,201.181,170.593,232.871,135.743,221.915,208.26,347.555,183.872,204.215
305,0,149.14,449.113,1132.06,146.873,177.351,1157.3,-56.8756,367.159,1211.16,-54.9209,261.725,1210.28,35.6756,504.087,856.904,-6.55444,472.86,661.848,-44.5995,468.767,461.389,-87.8002,411.342,240.932,-154.405,365.743,193.491,65.7104,405.226,191.768,155.8,110.109,877.18,173.204,144.017,684.19,170.337,134.145,477.968,197.009,170.876,231.58,131.677,221.939,207.211,343.81,183.963,203.328
306,0,149.809,447.748,1132.07,148.515,175.962,1157.07,-55.9564,365.116,1210.93,-53.6756,259.636,1210.16,36.1223,502.87,856.657,-6.32103,471.64,661.712,-45.5124,467.937,461.476,-90.8244,410.993,241.382,-157.643,365.465,193.991,62.2956,405.116,191.648,155.337,109.201,876.228,170.219,143.184,682.936,166.559,133.687,476.602,192.906,171.115,230.356,127.706,221.933,206.161,340.118,183.988,202.657
