Trajectories
100
,,Subj:LASI,,,Subj:RASI,,,Subj:LPSI,,,Subj:RPSI,,,Subj:LTHI,,,Subj:LKNE,,,Subj:LTIB,,,Subj:LANK,,,Subj:LHEE,,,Subj:LTOE,,,Subj:RTHI,,,Subj:RKNE,,,Subj:RTIB,,,Subj:RANK,,,Subj:RHEE,,,Subj:RTOE,,,
Frame,Sub Frame,X,Y,Z,X,Y,Z,X,Y,Z,X,Y,Z,X,Y,Z,X,Y,Z,X,Y,Z,X,Y,Z,X,Y,Z,X,Y,Z,X,Y,Z,X,Y,Z,X,Y,Z,X,Y,Z,X,Y,Z,X,Y,Z
,,mm,mm,mm,mm,mm,mm,mm,mm,mm,mm,mm,mm,mm,mm,mm,mm,mm,mm,mm,mm,mm,mm,mm,mm,mm,mm,mm,mm,mm,mm,mm,mm,mm,mm,mm,mm,mm,mm,mm,mm,mm,mm,mm,mm,mm,mm,mm,mm
1,0,,,,138.385,165.433,1158.94,-65.7765,349.09,1219.42,-62.3515,243.479,1213.42,51.8197,488.608,863.55,34.3991,460.576,667.164,-6.68925,451.221,462.774,-67.2389,395.355,247.032,-135.939,347.316,206.324,81.2902,393.168,191.75,172.461,104.075,880.479,206.579,138.189,692.137,168.804,131.133,487.195,137.203,171.071,243.025,67.3134,226.337,216.401,272.364,177.184,219.002
2,0,,,,139.976,164.647,1157.64,-65.8766,346.472,1218.07,-61.6005,241.008,1211.78,49.1652,487.785,863.536,26.9629,459.651,667.615,-14.4943,450.784,463.417,-73.6445,394.984,247.429,-142.279,346.984,206.806,74.7355,393.137,191.625,171.086,103.424,878.482,206.43,139.406,690.979,169.946,131.677,485.546,141.479,171.098,241.065,70.9719,225.604,214.784,277.628,178.65,216.55
3,0,,,,141.482,163.824,1156.37,-66.0023,343.876,1216.79,-60.8946,238.546,1210.24,46.7048,486.969,863.486,20.2519,458.752,667.946,-21.7719,450.349,463.982,-80.0504,394.649,247.878,-148.668,346.701,207.319,68.1551,393.105,191.499,169.887,102.937,876.538,206.019,140.463,689.76,170.47,132.191,483.89,144.333,171.184,239.206,73.2983,224.974,213.256,281.366,179.998,214.235
4,0,,,,142.903,162.963,1155.12,-66.1538,341.304,1215.58,-60.2339,236.093,1208.8,44.4393,486.16,863.401,14.267,457.879,668.159,-28.5213,449.917,464.47,-86.4555,394.35,248.378,-155.106,346.466,207.864,61.5499,393.072,191.373,168.86,102.612,874.649,205.345,141.359,688.48,170.377,132.674,482.225,145.773,171.328,237.448,74.3016,224.445,211.816,283.588,181.23,212.06
5,0,,,,144.239,162.064,1153.89,-66.3314,338.756,1214.43,-59.6187,233.649,1207.46,42.3706,485.356,863.279,9.0107,457.032,668.252,-34.7403,449.488,464.881,-92.8569,394.088,248.931,-161.593,346.281,208.447,54.9225,393.037,191.247,167.996,102.44,872.815,204.407,142.093,687.141,169.673,133.123,480.554,145.826,171.527,235.791,74.0057,224.017,210.466,284.322,182.342,210.028
6,0,,,,145.489,161.128,1152.69,-66.5356,336.231,1213.36,-59.0498,231.213,1206.22,40.5032,484.558,863.121,4.48813,456.213,668.226,-40.4246,449.063,465.216,-99.2486,393.863,249.539,-168.124,346.144,209.076,48.278,393.001,191.121,167.278,102.403,871.038,203.205,142.662,685.746,168.371,133.536,478.88,144.539,171.775,234.236,72.4581,223.684,209.207,283.62,183.334,208.145
7,0,,,,146.651,160.154,1151.51,-66.7676,333.731,1212.35,-58.5284,228.788,1205.09,38.8439,483.761,862.923,0.707304,455.427,668.082,-45.5673,448.645,465.479,-105.62,393.676,250.208,-174.693,346.055,209.768,41.6237,392.964,190.995,166.677,102.474,869.322,201.738,143.062,684.3,166.49,133.905,477.21,141.991,172.064,232.786,69.7338,223.44,208.04,281.569,184.203,206.417
8,0,,,,147.723,159.145,1150.36,-67.029,331.255,1211.41,-58.0565,226.373,1204.06,37.4036,482.963,862.683,-2.32068,454.677,667.822,-50.1589,448.238,465.676,-111.958,393.53,250.947,-181.289,346.013,210.55,34.9695,392.923,190.871,166.152,102.613,867.672,200.006,143.288,682.812,164.06,134.223,475.552,138.292,172.381,231.441,65.9376,223.275,206.97,278.288,184.945,204.853
9,0,135.463,431.384,1143.7,148.702,158.1,1149.23,-67.3222,328.805,1210.54,-57.6367,223.969,1203.14,36.1966,482.16,862.399,-4.58216,453.969,667.447,-54.1869,447.845,465.813,-118.24,393.425,251.769,-187.895,346.013,211.458,28.3265,392.876,190.746,165.649,102.772,866.092,198.008,143.334,681.292,161.117,134.479,473.918,133.58,172.709,230.206,61.201,223.176,206,273.928,185.559,203.461
10,0,134.803,429.978,1143.57,149.585,157.021,1148.14,-67.6501,326.383,1209.74,-57.2727,221.578,1202.33,35.2407,481.348,862.066,-6.06197,453.312,666.962,-57.6372,447.472,465.903,-124.44,393.362,252.694,-194.488,346.053,212.541,21.7059,392.819,190.619,165.104,102.893,864.588,195.747,143.195,679.753,157.709,134.66,472.321,128.015,173.031,229.082,55.6757,223.126,205.135,268.659,186.043,202.244
11,0,134.043,428.575,1143.42,150.368,155.909,1147.07,-68.0167,323.989,1209.02,-56.9686,219.203,1201.63,34.5571,480.523,861.682,-6.74504,452.714,666.374,-60.4945,447.125,465.959,-130.525,393.343,253.745,-201.034,346.123,213.859,15.1174,392.745,190.486,164.449,102.915,863.167,193.226,142.867,678.213,153.889,134.755,470.775,121.773,173.325,228.073,49.5254,223.106,204.382,262.668,186.398,201.2
12,0,133.183,427.175,1143.25,151.044,154.766,1146.04,-68.4262,321.624,1208.36,-56.7296,216.844,1201.04,34.1686,479.685,861.247,-6.61836,452.183,665.692,-62.744,446.81,466.001,-136.457,393.363,254.956,-207.494,346.215,215.483,8.56771,392.646,190.342,163.613,102.781,861.832,190.449,142.346,676.689,149.714,134.751,469.295,115.031,173.571,227.18,42.9152,223.096,203.745,256.142,186.627,200.324
13,0,132.222,425.779,1143.05,151.608,153.593,1145.04,-68.8838,319.291,1207.79,-56.5616,214.505,1200.57,34.0991,478.833,860.759,-5.67324,451.73,664.926,-64.3724,446.535,466.051,-142.189,393.42,256.364,-213.815,346.315,217.493,2.05911,392.511,190.179,162.529,102.438,860.591,187.424,141.634,675.199,145.241,134.638,467.895,107.962,173.752,226.404,36.0025,223.075,203.227,249.258,186.735,199.605
14,0,131.163,424.386,1142.83,152.053,152.392,1144.08,-69.3946,316.99,1207.28,-56.4707,212.188,1200.21,34.3711,477.968,860.224,-3.90757,451.362,664.093,-65.3698,446.305,466.135,-147.67,393.508,258.012,-219.939,346.408,219.971,-4.41093,392.328,189.989,161.141,101.846,859.446,184.159,140.737,673.763,140.527,134.406,466.587,100.719,173.85,225.741,28.9275,223.027,202.828,242.174,186.73,199.025
15,0,130.005,422.996,1142.6,152.374,151.166,1143.16,-69.9646,314.723,1206.85,-56.4637,209.897,1199.95,35.0044,477.095,859.647,-1.32805,451.087,663.212,-65.7309,446.125,466.283,-152.844,393.617,259.946,-225.8,346.475,223.002,-10.8496,392.087,189.766,159.408,100.979,858.401,180.666,139.662,672.397,135.624,134.052,465.379,93.4335,173.857,225.189,21.8079,222.935,202.543,235.024,186.623,198.564
16,0,128.752,421.611,1142.34,152.564,149.915,1142.28,-70.5992,312.491,1206.48,-56.5473,207.635,1199.81,36.014,476.219,859.038,2.04804,450.907,662.304,-65.4562,445.998,466.527,-157.65,393.736,262.215,-231.326,346.494,226.661,-17.2675,391.778,189.505,157.305,99.8283,857.459,176.955,138.424,671.115,130.578,133.576,464.279,86.2079,173.765,224.738,14.7342,222.789,202.364,227.907,186.427,198.201
17,0,127.407,420.229,1142.07,152.616,148.643,1141.44,-71.3039,310.295,1206.18,-56.7279,205.406,1199.76,37.4081,475.348,858.413,6.1914,450.826,661.395,-64.5533,445.924,466.9,-162.028,393.851,264.865,-236.441,346.445,231.016,-23.6759,391.396,189.208,154.826,98.4044,856.622,173.038,137.04,669.929,125.426,132.983,463.286,79.1145,173.576,224.379,7.76922,222.583,202.279,220.896,186.156,197.912
18,0,125.974,418.853,1141.78,152.526,147.35,1140.64,-72.0838,308.136,1205.95,-57.0119,203.212,1199.81,39.1864,474.492,857.79,11.06,450.84,660.514,-63.0369,445.902,467.436,-165.918,393.948,267.938,-241.073,346.303,236.114,-30.0832,390.942,188.887,151.983,96.7328,855.887,168.927,135.532,668.845,120.197,132.281,462.398,72.1961,173.296,224.099,0.949372,222.318,202.272,214.03,185.826,197.677
19,0,124.457,417.482,1141.49,152.289,146.038,1139.89,-72.9432,306.014,1205.77,-57.4045,201.059,1199.95,41.3388,473.66,857.19,16.5992,450.945,659.691,-60.9298,445.927,468.168,-169.265,394.013,271.468,-245.151,346.047,241.982,-36.4907,390.425,188.566,148.802,94.853,855.254,164.635,133.924,667.864,114.909,131.485,461.609,65.4695,172.938,223.884,-5.71204,221.999,202.325,207.324,185.453,197.477
20,0,122.863,416.117,1141.19,151.902,144.71,1139.18,-73.8854,303.932,1205.64,-57.9105,198.95,1200.16,43.8446,472.862,856.638,22.7422,451.13,658.958,-58.2622,445.992,469.125,-172.024,394.03,275.476,-248.614,345.659,248.616,-42.8873,389.863,188.283,145.32,92.8141,854.716,160.171,132.243,666.985,109.577,130.611,460.91,58.9296,172.517,223.718,-12.2201,221.636,202.419,200.774,185.054,197.296
21,0,121.2,414.759,1140.89,151.363,143.367,1138.51,-74.9128,301.889,1205.57,-58.533,196.89,1200.44,46.6723,472.106,856.159,29.4115,451.382,658.347,-55.0712,446.086,470.333,-174.16,393.987,279.972,-251.411,345.123,255.984,-49.2448,389.284,188.095,141.581,90.6704,854.265,155.55,130.514,666.2,104.206,129.679,460.29,52.5558,172.054,223.587,-18.5931,221.243,202.536,194.36,184.644,197.122
22,0,119.474,413.409,1140.61,150.671,142.011,1137.88,-76.0264,299.889,1205.53,-59.2741,194.882,1200.77,49.7798,471.397,855.779,36.5212,451.687,657.891,-51.4004,446.198,471.811,-175.655,393.874,284.947,-253.507,344.429,264.021,-55.5138,388.724,188.07,137.629,88.4775,853.89,150.782,128.765,665.5,98.7965,128.71,459.735,46.317,171.569,223.478,-24.857,220.835,202.661,188.054,184.236,196.947
23,0,117.695,412.068,1140.34,149.827,140.645,1137.29,-77.2258,297.932,1205.54,-60.1344,192.932,1201.14,53.1159,470.74,855.522,43.9791,452.025,657.617,-47.2983,446.314,473.57,-176.506,393.684,290.375,-254.879,343.575,272.629,-61.6206,388.225,188.29,133.507,86.2883,853.576,145.88,127.022,664.873,93.3482,127.726,459.232,40.1777,171.082,223.379,-31.0413,220.427,202.783,181.825,183.843,196.765
24,0,115.871,410.737,1140.09,148.835,139.27,1136.74,-78.5092,296.022,1205.58,-61.1127,191.042,1201.55,56.6216,470.136,855.41,51.6898,452.376,657.553,-42.8172,446.42,475.613,-176.725,393.414,296.213,-255.526,342.564,281.684,-67.4667,387.833,188.84,129.254,84.1499,853.305,140.859,125.308,664.305,87.8581,126.747,458.771,34.1023,170.611,223.281,-37.1745,220.033,202.893,175.644,183.473,196.573
25,0,114.011,409.418,1139.89,147.698,137.89,1136.23,-79.8733,294.162,1205.65,-62.2062,189.219,1201.98,60.2325,469.582,855.459,59.5573,452.72,657.721,-38.0116,446.502,477.936,-176.34,393.066,302.398,-255.459,341.412,291.034,-72.9307,387.587,189.803,124.901,82.1018,853.059,135.733,123.644,663.784,82.324,125.791,458.341,28.0587,170.172,223.179,-43.2818,219.665,202.99,169.484,183.134,196.37
26,0,112.126,408.112,1139.73,146.424,136.509,1135.76,-81.3135,292.355,1205.76,-63.4105,187.465,1202.42,63.8818,469.076,855.682,67.4882,453.037,658.139,-32.9372,446.547,480.521,-175.387,392.645,308.851,-254.705,340.138,300.511,-77.8722,387.52,191.251,120.478,80.1749,852.819,130.52,122.047,663.298,76.7448,124.875,457.934,22.021,169.776,223.07,-49.3831,219.332,203.074,163.326,182.828,196.156
27,0,110.224,406.821,1139.63,145.018,135.131,1135.32,-82.8237,290.607,1205.91,-64.7196,185.786,1202.87,67.5025,468.611,856.085,75.3934,453.309,658.817,-27.6488,446.543,483.342,-173.908,392.161,315.477,-253.302,338.772,309.933,-82.1394,387.651,193.231,116.008,78.3912,852.569,125.236,120.534,662.836,71.1212,124.011,457.546,15.9697,169.429,222.955,-55.4925,219.038,203.152,157.155,182.559,195.933
28,0,108.313,405.547,1139.6,143.491,133.759,1134.92,-84.3967,288.922,1206.09,-66.126,184.186,1203.33,71.0308,468.18,856.668,83.1912,453.518,659.761,-22.1996,446.482,486.365,-171.947,391.627,322.169,-251.299,337.349,319.115,-85.5769,387.977,195.763,111.515,76.7643,852.296,119.9,119.114,662.394,65.456,123.209,457.174,9.89296,169.133,222.836,-61.6185,218.785,203.232,150.964,182.324,195.701
29,0,106.403,404.294,1139.65,141.852,132.401,1134.55,-86.0244,287.307,1206.32,-67.6207,182.669,1203.78,74.4083,467.775,857.429,90.8079,453.651,660.972,-16.6394,446.356,489.547,-169.539,391.06,328.806,-248.747,335.91,327.875,-88.0366,388.474,198.827,107.023,75.3004,851.994,114.531,117.794,661.966,59.7539,122.474,456.821,3.78494,168.889,222.72,-67.7642,218.571,203.326,144.75,182.121,195.463
30,0,104.501,403.063,1139.79,140.112,131.061,1134.23,-87.6977,285.769,1206.59,-69.1939,181.238,1204.24,77.5846,467.39,858.356,98.179,453.697,662.441,-11.014,446.162,492.836,-166.712,390.475,335.262,-245.7,334.495,336.036,-89.3866,389.099,202.368,102.558,73.9996,851.659,109.146,116.581,661.554,54.0208,121.809,456.49,-2.35488,168.69,222.613,-73.9292,218.393,203.444,138.514,181.947,195.221
31,0,102.615,401.857,1140.02,138.283,129.748,1133.94,-89.407,284.313,1206.92,-70.8346,179.899,1204.7,80.5188,467.016,859.437,105.25,453.649,664.157,-5.36436,445.899,496.175,-163.484,389.892,341.406,-242.208,333.147,343.442,-89.5206,389.786,206.292,98.1454,72.8571,851.299,103.761,115.476,661.161,48.2637,121.213,456.188,-8.5234,168.53,222.525,-80.1099,218.244,203.599,132.26,181.796,194.976
32,0,100.75,400.681,1140.36,136.377,128.467,1133.7,-91.1422,282.947,1207.32,-72.5314,178.653,1205.17,83.1807,466.649,860.656,111.974,453.501,666.101,0.274486,445.57,499.505,-159.861,389.325,347.11,-238.316,331.9,349.95,-88.3642,390.458,210.473,93.8134,71.8647,850.923,98.3925,114.478,660.793,42.4897,120.682,455.925,-14.7153,168.401,222.465,-86.3015,218.119,203.805,125.991,181.661,194.732
33,0,98.9115,399.539,1140.81,134.406,127.228,1133.5,-92.8933,281.678,1207.79,-74.2724,177.505,1205.66,85.551,466.282,861.997,118.316,453.251,668.248,5.87336,445.179,502.762,-155.84,388.787,352.25,-234.062,330.784,355.443,-85.8787,391.036,214.766,89.5865,71.0121,850.549,93.0514,113.584,660.46,36.7056,120.212,455.71,-20.9244,168.294,222.443,-92.4987,218.009,204.072,119.712,181.538,194.489
34,0,97.1056,398.435,1141.37,132.383,126.037,1133.36,-94.6499,280.513,1208.34,-76.0453,176.457,1206.18,87.6212,465.914,863.441,124.244,452.901,670.572,11.4093,444.731,505.883,-151.417,388.287,356.714,-229.471,329.819,359.824,-82.0625,391.444,219.013,85.4849,70.2881,850.195,87.7475,112.792,660.172,30.9173,119.794,455.557,-27.1447,168.201,222.471,-98.6963,217.909,204.411,113.428,181.421,194.251
35,0,95.3362,397.373,1142.05,130.321,124.904,1133.26,-96.4023,279.457,1208.98,-77.8384,175.512,1206.73,89.3926,465.541,864.972,129.736,452.453,673.04,16.8656,444.234,508.807,-146.583,387.827,360.407,-224.562,329.014,363.021,-76.9484,391.624,223.059,81.5215,69.6813,849.883,82.4874,112.096,659.941,25.1298,119.422,455.476,-33.3712,168.113,222.558,-104.89,217.809,204.833,107.139,181.303,194.02
36,0,93.6072,396.359,1142.84,128.231,123.836,1133.22,-98.1406,278.515,1209.7,-79.6398,174.671,1207.32,90.8748,465.161,866.574,134.772,451.91,675.617,22.231,443.695,511.476,-141.337,387.405,363.251,-219.339,328.366,364.984,-70.5998,391.544,226.762,77.6996,69.181,849.632,77.2743,111.491,659.779,19.3466,119.087,455.48,-39.5997,168.024,222.714,-111.077,217.706,205.346,100.847,181.179,193.798
37,0,91.9221,395.397,1143.75,126.125,122.839,1133.24,-99.8556,277.693,1210.53,-81.4385,173.936,1207.97,92.0841,464.775,868.233,139.336,451.276,678.265,27.4999,443.121,513.839,-135.681,387.013,365.19,-213.797,327.861,365.687,-63.104,391.197,230.002,74.0125,68.7775,849.46,72.1088,110.97,659.697,13.57,118.781,455.58,-45.8277,167.926,222.948,-117.256,217.594,205.956,94.5514,181.045,193.587
38,0,90.2842,394.493,1144.76,124.016,121.922,1133.31,-101.539,276.993,1211.45,-83.2238,173.309,1208.67,93.0412,464.38,869.936,143.414,450.555,680.945,32.671,442.517,515.85,-129.621,386.641,366.188,-207.92,327.476,365.121,-54.5643,390.611,232.686,70.4432,68.4627,849.381,66.9887,110.528,659.704,7.80116,118.497,455.783,-52.0537,167.815,223.266,-123.425,217.468,206.671,88.2499,180.896,193.387
39,0,88.6966,393.652,1145.87,121.913,121.089,1133.44,-103.182,276.416,1212.48,-84.9861,172.789,1209.44,93.7692,463.979,871.672,146.994,449.752,683.618,37.7463,441.889,517.475,-123.168,386.273,366.229,-201.681,327.183,363.299,-45.0922,389.837,234.752,66.9661,68.2298,849.406,61.9096,110.159,659.808,2.0401,118.228,456.098,-58.2769,167.687,223.674,-129.585,217.325,207.493,81.9396,180.731,193.199
40,0,87.1628,392.878,1147.06,119.826,120.345,1133.62,-104.777,275.965,1213.59,-86.7163,172.378,1210.27,94.2918,463.57,873.432,150.061,448.87,686.243,42.7304,441.237,518.686,-116.333,385.896,365.318,-195.046,326.949,360.25,-34.7989,388.951,236.171,63.5501,68.0731,849.54,56.8651,109.857,660.015,-3.71385,117.97,456.528,-64.4971,167.539,224.174,-135.737,217.162,208.426,75.6174,180.547,193.022
41,0,85.6862,392.176,1148.33,117.767,119.694,1133.87,-106.317,275.638,1214.79,-88.4062,172.073,1211.18,94.6309,463.155,875.206,152.604,447.914,688.78,47.6293,440.565,519.47,-109.122,385.498,363.474,-187.97,326.743,356.021,-23.7882,388.035,236.943,60.1615,67.9881,849.784,51.8478,109.616,660.327,-9.4619,117.717,457.074,-70.7144,167.368,224.767,-141.882,216.977,209.468,69.2799,180.343,192.855
42,0,84.2706,391.549,1149.67,115.742,119.136,1134.16,-107.797,275.433,1216.07,-90.0487,171.875,1212.15,94.8059,462.736,876.984,154.609,446.887,691.191,52.4486,439.869,519.821,-101.533,385.07,360.729,-180.403,326.538,350.675,-12.1498,387.172,237.092,56.7684,67.9711,850.134,46.8497,109.43,660.743,-15.2055,117.469,457.734,-76.9291,167.173,225.451,-148.023,216.769,210.618,62.9242,180.119,192.696
43,0,82.9201,391.001,1151.04,113.762,118.672,1134.49,-109.209,275.349,1217.41,-91.6371,171.781,1213.18,94.8317,462.314,878.753,156.065,445.791,693.44,57.1929,439.148,519.748,-93.5561,384.608,357.133,-172.29,326.315,344.291,0.0450936,386.432,236.669,53.3434,68.0188,850.583,41.8628,109.295,661.26,-20.9459,117.222,458.503,-83.1414,166.954,226.22,-154.162,216.535,211.87,56.5476,179.876,192.542
44,0,81.6392,390.533,1152.44,111.835,118.302,1134.86,-110.548,275.38,1218.8,-93.1658,171.791,1214.26,94.7185,461.892,880.501,156.96,444.631,695.493,61.8646,438.398,519.268,-85.165,384.114,352.743,-163.571,326.062,336.965,12.747,385.862,235.74,49.8672,68.1283,851.121,36.8798,109.206,661.871,-26.6843,116.977,459.372,-89.3514,166.711,227.068,-160.301,216.277,213.218,50.148,179.617,192.391
45,0,80.433,390.146,1153.84,109.967,118.021,1135.27,-111.809,275.522,1220.22,-94.6296,171.901,1215.39,94.4708,461.476,882.21,157.286,443.411,697.321,66.463,437.614,518.409,-76.3233,383.592,347.634,-154.186,325.774,328.807,25.9284,385.48,234.39,46.3295,68.2966,851.736,31.8949,109.157,662.568,-32.4214,116.735,460.33,-95.5595,166.444,227.985,-166.442,215.992,214.653,43.7241,179.344,192.24
46,0,79.3069,389.842,1155.23,108.167,117.826,1135.69,-112.988,275.77,1221.65,-96.0239,172.11,1216.54,94.0879,461.069,883.862,157.038,442.135,698.898,70.9832,436.791,517.208,-66.9842,383.053,341.892,-144.082,325.455,319.946,39.5813,385.271,232.715,42.7302,68.5208,852.413,26.904,109.144,663.338,-38.157,116.497,461.363,-101.766,166.155,228.96,-172.59,215.681,216.163,37.2746,179.061,192.086
47,0,78.2665,389.619,1156.59,106.442,117.712,1136.12,-114.08,276.117,1223.06,-97.3445,172.413,1217.7,93.564,460.679,885.432,156.218,440.811,700.203,75.4164,435.924,515.709,-57.0953,382.505,335.616,-133.211,325.114,310.52,53.7133,385.188,230.823,39.0785,68.7978,853.138,21.9054,109.164,664.167,-43.8903,116.266,462.454,-107.973,165.847,229.982,-178.745,215.346,217.736,30.799,178.769,191.929
48,0,77.318,389.475,1157.89,104.799,117.673,1136.55,-115.082,276.558,1224.44,-98.5879,172.808,1218.85,92.8887,460.312,886.894,154.833,439.447,701.222,79.7491,435.01,513.961,-46.6057,381.955,328.924,-121.541,324.76,300.681,68.3394,385.156,228.832,35.3916,69.1245,853.893,16.9005,109.211,665.04,-49.6194,116.045,463.587,-114.18,165.522,231.038,-184.912,214.986,219.36,24.2963,178.473,191.767
49,0,76.4675,389.41,1159.11,103.245,117.702,1136.96,-115.99,277.086,1225.76,-99.7504,173.291,1219.98,92.0481,459.976,888.219,152.898,438.05,701.945,83.9638,434.045,512.015,-35.4736,381.404,321.945,-109.06,324.402,290.592,83.4734,385.085,226.866,31.6926,69.498,854.661,11.8934,109.284,665.94,-55.3411,115.837,464.742,-120.39,165.186,232.116,-191.091,214.605,221.021,17.7659,178.176,191.601
50,0,75.7211,389.418,1160.24,101.786,117.791,1137.35,-116.8,277.694,1226.99,-100.829,173.857,1221.05,91.0264,459.677,889.378,150.439,436.634,702.367,88.039,433.027,509.923,-23.6761,380.848,314.822,-95.7826,324.044,280.418,99.1165,384.875,225.051,28.0085,69.9154,855.426,6.89181,109.378,666.849,-61.0513,115.646,465.902,-126.606,164.842,233.205,-197.285,214.207,222.706,11.2064,177.88,191.43
51,0,75.0848,389.497,1161.26,100.428,117.934,1137.71,-117.512,278.377,1228.11,-101.82,174.503,1222.05,89.8071,459.423,890.339,147.492,435.209,702.491,91.9502,431.957,507.736,-11.2184,380.271,307.703,-81.757,323.68,270.329,115.246,384.432,223.51,24.3676,70.374,856.169,1.90658,109.492,667.748,-66.7442,115.476,467.047,-132.83,164.497,234.295,-203.495,213.795,224.401,4.61649,177.588,191.258
52,0,74.5641,389.642,1162.15,99.1792,118.124,1138.01,-118.122,279.128,1229.11,-102.721,175.223,1222.95,88.3755,459.22,891.073,144.103,433.789,702.325,95.6702,430.838,505.499,1.85664,379.653,300.74,-67.0691,323.297,260.486,131.805,383.679,222.357,20.7982,70.8715,856.873,-3.04804,109.624,668.619,-72.4127,115.33,468.16,-139.065,164.155,235.376,-209.724,213.378,226.095,-2.00591,177.301,191.085
53,0,74.1643,389.849,1162.91,98.0442,118.354,1138.26,-118.629,279.941,1229.95,-103.529,176.013,1223.74,86.7206,459.07,891.554,140.329,432.389,701.883,99.1711,429.673,503.252,15.4614,378.965,294.079,-51.8466,322.873,251.044,148.692,382.568,221.688,17.3274,71.4056,857.522,-7.95462,109.774,669.443,-78.0481,115.212,469.224,-145.315,163.824,236.442,-215.97,212.962,227.777,-8.66297,177.021,190.915
54,0,73.8896,390.114,1163.51,97.029,118.619,1138.44,-119.032,280.81,1230.63,-104.242,176.867,1224.39,84.8374,458.975,891.759,136.237,431.023,701.182,102.424,428.469,501.03,29.4587,378.177,287.85,-36.26,322.379,242.138,165.757,381.086,221.571,13.9804,71.9742,858.1,-12.7927,109.941,670.203,-83.6402,115.125,470.224,-151.583,163.509,237.488,-222.236,212.557,229.439,-15.357,176.748,190.75
55,0,73.7433,390.431,1163.95,96.1386,118.915,1138.54,-119.332,281.731,1231.12,-104.857,177.779,1224.89,82.7297,458.935,891.674,131.904,429.706,700.245,105.403,427.236,498.857,43.661,377.259,282.16,-20.5216,321.783,233.884,182.797,379.257,222.036,10.7808,72.5751,858.591,-17.5388,110.127,670.881,-89.1768,115.071,471.148,-157.871,163.216,238.508,-228.521,212.171,231.072,-22.0899,176.485,190.592
56,0,73.7278,390.797,1164.22,95.3775,119.238,1138.57,-119.53,282.697,1231.42,-105.372,178.744,1225.22,80.4116,458.946,891.291,127.414,428.452,699.1,108.08,425.984,496.751,57.8335,376.187,277.086,-4.88015,321.05,226.373,199.562,377.146,223.072,7.7511,73.2061,858.983,-22.1669,110.332,671.463,-94.6443,115.052,471.984,-164.182,162.949,239.503,-234.825,211.812,232.672,-28.8634,176.23,190.441
57,0,73.844,391.208,1164.33,94.7493,119.587,1138.51,-119.626,283.702,1231.51,-105.785,179.754,1225.36,77.9097,459.002,890.612,122.855,427.275,697.775,110.435,424.727,494.72,71.7027,374.947,272.666,10.3865,320.152,219.664,215.762,374.849,224.614,4.9133,73.8647,859.263,-26.648,110.56,671.933,-100.027,115.07,472.724,-170.516,162.712,240.469,-241.149,211.486,234.236,-35.6779,175.985,190.298
58,0,74.0914,391.66,1164.28,94.2569,119.961,1138.37,-119.624,284.741,1231.4,-106.095,180.803,1225.33,75.264,459.094,889.647,118.319,426.188,696.304,112.449,423.478,492.768,84.969,373.54,268.899,24.9828,319.072,213.79,231.083,372.486,226.549,2.28988,74.548,859.419,-30.9508,110.812,672.278,-105.307,115.125,473.362,-176.874,162.504,241.409,-247.493,211.197,235.766,-42.5326,175.75,190.164
59,0,74.4682,392.152,1164.07,93.9015,120.361,1138.15,-119.527,285.809,1231.09,-106.302,181.885,1225.09,72.5277,459.214,888.418,113.897,425.201,694.718,114.109,422.254,490.89,97.3233,371.983,265.747,38.6093,317.803,208.751,245.203,370.185,228.717,-0.0956373,75.2529,859.443,-35.0409,111.09,672.488,-110.465,115.215,473.894,-183.253,162.325,242.326,-253.857,210.944,237.264,-49.4252,175.525,190.035
60,0,74.9707,392.681,1163.71,93.6836,120.788,1137.84,-119.34,286.898,1230.57,-106.406,182.99,1224.67,69.7663,459.353,886.955,109.675,424.326,693.051,115.406,421.07,489.079,108.467,370.305,263.138,50.9779,316.353,204.523,257.814,368.076,230.921,-2.21828,75.9761,859.326,-38.8816,111.398,672.552,-115.478,115.34,474.319,-189.651,162.17,243.222,-260.242,210.722,238.738,-56.3517,175.309,189.911
61,0,75.5938,393.246,1163.21,93.6018,121.247,1137.46,-119.066,288.003,1229.86,-106.407,184.112,1224.05,67.0557,459.502,885.298,105.733,423.569,691.336,116.338,419.945,487.325,118.13,368.552,260.973,61.828,314.748,201.056,268.645,366.267,232.944,-4.05168,76.7143,859.062,-42.4329,111.737,672.463,-120.322,115.495,474.639,-196.063,162.031,244.107,-266.648,210.521,240.201,-63.3061,175.105,189.788
62,0,76.3309,393.848,1162.59,93.6534,121.739,1137.02,-118.713,289.117,1228.97,-106.308,185.243,1223.25,64.4783,459.653,883.495,102.142,422.938,689.605,116.91,418.896,485.616,126.095,366.777,259.143,70.9423,313.026,198.286,277.485,364.843,234.567,-5.56845,77.4647,858.647,-45.6523,112.108,672.213,-124.968,115.676,474.857,-202.481,161.899,244.989,-273.074,210.326,241.669,-70.2808,174.91,189.664
63,0,77.1735,394.486,1161.86,93.8338,122.271,1136.51,-118.287,290.234,1227.91,-106.111,186.375,1222.28,62.1188,459.803,881.596,98.9577,422.438,687.886,117.132,417.938,483.943,132.208,365.039,257.538,78.1592,311.237,196.134,284.196,363.852,235.592,-6.74098,78.2249,858.078,-48.494,112.511,671.799,-129.384,115.879,474.981,-208.894,161.762,245.882,-279.515,210.117,243.166,-77.2669,174.726,189.534
64,0,78.112,395.161,1161.05,94.1369,122.846,1135.94,-117.797,291.346,1226.71,-105.822,187.501,1221.15,60.0592,459.951,879.658,96.2224,422.072,686.207,117.02,417.087,482.299,136.393,363.395,256.056,83.3839,309.439,194.516,288.73,363.305,235.86,-7.54237,78.9931,857.356,-50.9096,112.944,671.218,-133.536,116.097,475.02,-215.285,161.606,246.804,-285.964,209.875,244.721,-84.2547,174.551,189.394
65,0,79.1355,395.873,1160.17,94.5548,123.47,1135.34,-117.249,292.448,1225.38,-105.444,188.615,1219.87,58.3731,460.1,877.735,93.9609,421.841,684.59,116.594,416.357,480.677,138.658,361.895,254.621,86.5928,307.692,193.348,291.131,363.175,235.275,-7.94756,79.7686,856.482,-52.8483,113.405,670.469,-137.387,116.322,474.987,-221.637,161.419,247.777,-292.408,209.579,246.369,-91.2342,174.387,189.242
66,0,80.2317,396.625,1159.24,95.0779,124.147,1134.71,-116.654,293.534,1223.95,-104.985,189.709,1218.48,57.1201,460.256,875.882,92.1798,421.747,683.055,115.878,415.761,479.077,139.089,360.576,253.18,87.8345,306.051,192.55,291.531,363.407,233.809,-7.93439,80.5515,855.464,-54.2574,113.889,669.554,-140.892,116.549,474.896,-227.923,161.187,248.829,-298.823,209.208,248.153,-98.1958,174.232,189.073
67,0,81.3876,397.417,1158.28,95.6952,124.88,1134.06,-116.019,294.598,1222.44,-104.452,190.78,1216.97,56.3414,460.43,874.144,90.8681,421.787,681.616,114.898,415.306,477.501,137.845,359.466,251.714,87.2247,304.567,192.049,290.14,363.922,231.51,-7.48438,81.3427,854.309,-55.0829,114.389,668.476,-144.008,116.769,474.764,-234.112,160.901,249.99,-305.179,208.748,250.123,-105.131,174.087,188.886
68,0,82.5895,398.251,1157.32,96.3941,125.673,1133.39,-115.355,295.637,1220.88,-103.855,191.822,1215.39,56.0554,460.634,872.562,89.9966,421.961,680.285,113.68,414.999,475.954,135.14,358.573,250.229,84.9369,303.277,191.779,287.223,364.628,228.493,-6.58338,82.1433,853.032,-55.2713,114.896,667.241,-146.686,116.975,474.61,-240.164,160.555,251.298,-311.433,208.192,252.335,-112.034,173.952,188.678
69,0,83.823,399.126,1156.37,97.1609,126.526,1132.73,-114.672,296.648,1219.29,-103.204,192.835,1213.75,56.2556,460.883,871.166,89.52,422.265,679.067,112.248,414.844,474.446,131.223,357.894,248.754,81.1887,302.207,191.686,283.082,365.437,224.931,-5.22174,82.9548,851.648,-54.7705,115.403,665.857,-148.876,117.159,474.456,-246.035,160.145,252.794,-317.526,207.539,254.849,-118.9,173.828,188.448
70,0,85.0736,400.042,1155.46,97.981,127.442,1132.08,-113.978,297.629,1217.71,-102.509,193.817,1212.08,56.9095,461.193,869.974,89.3785,422.692,677.964,110.624,414.839,472.985,126.358,357.414,247.334,76.2261,301.367,191.724,278.022,366.264,221.029,-3.39416,83.7782,850.175,-53.5317,115.899,664.337,-150.525,117.315,474.324,-251.669,159.674,254.52,-323.39,206.799,257.732,-125.728,173.717,188.198
71,0,86.3268,400.999,1154.59,98.8391,128.418,1131.45,-113.283,298.582,1216.14,-101.784,194.769,1210.39,57.9599,461.576,868.994,89.5003,423.238,676.974,108.822,414.982,471.582,120.799,357.107,246.015,70.3065,300.754,191.854,272.335,367.046,217.009,-1.09929,84.6138,848.635,-51.5115,116.373,662.694,-151.584,117.436,474.237,-257.007,159.151,256.521,-328.938,205.992,261.049,-132.516,173.621,187.932
72,0,87.5682,401.995,1153.78,99.7195,129.453,1130.86,-112.597,299.507,1214.62,-101.04,195.694,1208.71,59.3271,462.044,868.221,89.8044,423.895,676.092,106.854,415.264,470.245,114.779,356.941,244.84,63.6828,300.353,192.045,266.273,367.734,213.079,1.66091,85.4609,847.053,-48.6737,116.816,660.946,-152.001,117.517,474.221,-261.982,158.588,258.841,-334.076,205.144,264.867,-139.266,173.545,187.659
73,0,88.7837,403.028,1153.04,100.606,130.541,1130.29,-111.928,300.41,1213.16,-100.291,196.597,1207.05,60.9134,462.607,867.639,90.2042,424.654,675.307,104.721,415.676,468.981,108.488,356.885,243.84,56.5896,300.137,192.27,260.038,368.303,209.418,4.88172,86.3176,845.453,-44.992,117.22,659.115,-151.73,117.553,474.299,-266.523,158.001,261.522,-338.695,204.292,269.246,-145.977,173.492,187.39
74,0,89.9599,404.094,1152.37,101.484,131.678,1129.77,-111.285,301.295,1211.78,-99.5507,197.482,1205.44,62.608,463.266,867.227,90.6105,425.507,674.608,102.419,416.203,467.797,102.075,356.904,243.029,49.2318,300.075,192.508,253.773,368.744,206.163,8.55612,87.1803,843.863,-40.4513,117.578,657.224,-150.729,117.542,474.497,-270.555,157.41,264.601,-342.684,203.473,274.239,-152.647,173.469,187.148
75,0,91.0842,405.189,1151.78,102.338,132.856,1129.29,-110.674,302.167,1210.5,-98.8329,198.357,1203.88,64.2935,464.023,866.952,90.9351,426.442,673.981,99.9382,416.832,466.694,95.6428,356.967,242.405,41.7781,300.132,192.74,247.567,369.065,203.398,12.6749,88.0446,842.309,-35.0501,117.885,655.303,-148.966,117.482,474.838,-274.006,156.833,268.106,-345.929,202.728,279.887,-159.263,173.482,186.959
76,0,92.1447,406.309,1151.27,103.155,134.068,1128.87,-110.104,303.036,1209.33,-98.1506,199.231,1202.39,65.8521,464.872,866.782,91.0942,427.45,673.412,97.2648,417.544,465.673,89.2534,357.051,241.949,34.3572,300.269,192.951,241.457,369.283,201.157,17.2261,88.905,840.82,-28.8016,118.14,653.383,-146.414,117.373,475.344,-276.803,156.291,272.058,-348.323,202.096,286.213,-165.806,173.536,186.86
77,0,93.1307,407.448,1150.83,103.92,135.304,1128.5,-109.581,303.907,1208.27,-97.5167,200.11,1200.99,67.1722,465.804,866.682,91.0112,428.518,672.886,94.3816,418.322,464.729,82.9356,357.134,241.632,27.0587,300.452,193.128,235.444,369.421,199.427,22.1946,89.7552,839.426,-21.7344,118.346,651.5,-143.061,117.216,476.037,-278.883,155.802,276.467,-349.77,201.607,293.219,-172.242,173.638,186.896
78,0,94.0324,408.6,1150.45,104.624,136.555,1128.18,-109.11,304.789,1207.33,-96.9429,201.004,1199.67,68.1538,466.806,866.618,90.62,429.635,672.389,91.2712,419.146,463.858,76.6937,357.204,241.417,19.9359,300.65,193.264,229.501,369.503,198.16,27.56,90.5887,838.154,-13.893,118.508,649.692,-138.904,117.016,476.936,-280.188,155.379,281.331,-350.192,201.288,300.887,-178.516,173.791,187.118
79,0,94.8415,409.761,1150.14,105.255,137.81,1127.92,-108.696,305.689,1206.51,-96.4398,201.919,1198.45,68.7146,467.863,866.562,89.8666,430.788,671.908,87.9184,419.997,463.053,70.5164,357.252,241.265,13.0111,300.838,193.352,223.591,369.55,197.283,33.2958,91.399,837.033,-5.33711,118.634,647.999,-133.954,116.777,478.056,-280.673,155.033,286.631,-349.535,201.151,309.17,-184.556,173.997,187.583
80,0,95.5506,410.924,1149.87,105.806,139.06,1127.71,-108.343,306.612,1205.81,-96.0165,202.864,1197.32,68.7929,468.957,866.487,88.7111,431.964,671.431,84.3119,420.857,462.307,64.3854,357.276,241.142,6.28226,300.997,193.392,217.672,369.581,196.712,39.3671,92.1802,836.09,3.85986,118.736,646.462,-128.238,116.508,479.41,-280.306,154.768,292.337,-347.775,201.201,317.994,-190.264,174.254,188.35
81,0,96.1538,412.084,1149.65,106.27,140.294,1127.56,-108.054,307.564,1205.22,-95.6806,203.842,1196.3,68.3515,470.071,866.376,87.129,433.151,670.949,80.4465,421.709,461.612,58.2807,357.275,241.018,-0.269842,301.112,193.384,211.711,369.61,196.361,45.7291,92.9266,835.352,13.6125,118.827,645.123,-121.793,116.218,481.005,-279.068,154.585,298.404,-344.917,201.429,327.261,-195.521,174.557,189.474
82,0,96.6464,413.235,1149.45,106.642,141.504,1127.46,-107.832,308.545,1204.74,-95.4376,204.858,1195.37,67.378,471.186,866.217,85.1114,434.335,670.456,76.324,422.536,460.96,52.1855,357.255,240.875,-6.67527,301.177,193.334,205.683,369.645,196.149,52.3266,93.6332,834.839,23.8261,118.922,644.022,-114.672,115.92,482.845,-276.956,154.48,304.771,-341.001,201.818,336.845,-200.185,174.897,191.003
83,0,97.0251,414.373,1149.26,106.921,142.681,1127.43,-107.679,309.557,1204.36,-95.291,205.912,1194.54,65.885,472.283,866.003,82.6643,435.502,669.947,71.9537,423.324,460.346,46.0879,357.219,240.701,-12.9688,301.189,193.249,199.576,369.689,196.011,59.0933,94.2957,834.569,34.3997,119.037,643.196,-106.937,115.629,484.928,-273.98,154.446,311.365,-336.094,202.342,346.6,-204.097,175.261,192.97
84,0,97.2879,415.493,1149.08,107.104,143.817,1127.44,-107.595,310.598,1204.08,-95.2423,207.003,1193.81,63.9086,473.347,865.734,79.8081,436.639,669.42,67.3525,424.06,459.764,39.9816,357.171,240.496,-19.1855,301.15,193.136,193.392,369.743,195.898,65.9532,94.9103,834.556,45.2296,119.186,642.679,-98.6615,115.359,487.243,-270.164,154.474,318.101,-330.293,202.971,356.362,-207.085,175.633,195.39
85,0,97.4342,416.592,1148.89,107.192,144.907,1127.52,-107.58,311.664,1203.87,-95.2906,208.127,1193.17,61.5048,474.362,865.411,76.5756,437.732,668.873,62.5442,424.733,459.208,33.8657,357.116,240.263,-25.3566,301.063,193.007,187.139,369.803,195.775,72.8222,95.4733,834.805,56.2121,119.382,642.497,-89.9233,115.128,489.775,-265.543,154.553,324.882,-323.713,203.673,365.956,-208.974,175.994,198.254
86,0,97.4646,417.666,1148.68,107.189,145.945,1127.65,-107.634,312.748,1203.73,-95.4334,209.279,1192.63,58.7455,475.316,865.042,73.0096,438.768,668.31,57.5579,425.333,458.677,27.7429,357.055,240.012,-31.5081,300.936,192.87,180.834,369.864,195.623,79.6119,95.9818,835.312,67.2469,119.636,642.671,-80.8055,114.955,492.502,-260.159,154.677,331.602,-316.483,204.417,375.199,-209.595,176.325,201.529
87,0,97.381,418.713,1148.45,107.096,146.928,1127.85,-107.755,313.842,1203.66,-95.6657,210.449,1192.18,55.7136,476.198,864.632,69.1605,439.734,667.732,52.4264,425.855,458.168,21.6186,356.989,239.754,-37.6589,300.775,192.733,174.493,369.919,195.437,86.2329,96.4328,836.07,78.2399,119.959,643.216,-71.3921,114.856,495.391,-254.062,154.838,338.149,-308.737,205.175,383.909,-208.79,176.608,205.154
88,0,97.1866,419.73,1148.19,106.921,147.854,1128.1,-107.941,314.937,1203.64,-95.9812,211.628,1191.83,52.4974,476.999,864.19,65.083,440.617,667.144,47.1848,426.292,457.681,15.4989,356.918,239.501,-43.8212,300.588,192.606,168.136,369.962,195.217,92.5998,96.8241,837.061,89.1046,120.356,644.137,-61.7646,114.848,498.407,-247.302,155.033,344.404,-300.603,205.925,391.91,-206.43,176.826,209.046
89,0,96.8858,420.715,1147.9,106.668,148.721,1128.42,-108.188,316.021,1203.66,-96.3717,212.803,1191.58,49.1849,477.712,863.722,60.8334,441.406,666.55,41.8676,426.641,457.216,9.38954,356.838,239.263,-50.0008,300.38,192.494,161.778,369.986,194.972,98.6355,97.1539,838.262,99.7642,120.829,645.431,-51.9997,114.947,501.504,-239.931,155.261,350.248,-292.196,206.655,399.035,-202.414,176.969,213.101
90,0,96.4839,421.666,1147.57,106.345,149.53,1128.8,-108.493,317.083,1203.73,-96.8279,213.962,1191.42,45.8586,478.334,863.237,56.4665,442.093,665.956,36.5079,426.901,456.773,3.29486,356.748,239.049,-56.1979,300.158,192.401,155.431,369.986,194.71,104.276,97.4214,839.647,110.151,121.38,647.087,-42.1665,115.164,504.632,-231.996,155.525,355.562,-283.613,207.356,405.134,-196.677,177.03,217.2
91,0,95.9876,422.58,1147.2,105.961,150.28,1129.26,-108.849,318.112,1203.82,-97.3393,215.092,1191.36,42.591,478.86,862.739,52.0329,442.669,665.367,31.135,427.073,456.355,-2.78275,356.644,238.866,-62.4089,299.926,192.331,149.104,369.956,194.44,109.472,97.6272,841.185,120.209,122.006,649.087,-32.3247,115.507,507.737,-223.54,155.833,360.227,-274.923,208.031,410.072,-189.196,177.011,221.221
92,0,95.4043,423.455,1146.79,105.523,150.975,1129.78,-109.252,319.096,1203.95,-97.8948,216.178,1191.4,39.4406,479.289,862.236,47.5771,443.13,664.791,25.7736,427.158,455.965,-8.84311,356.523,238.718,-68.6275,299.688,192.287,142.8,369.896,194.171,114.195,97.7732,842.848,129.888,122.701,651.406,-22.5227,115.982,510.762,-214.596,156.191,364.134,-266.167,208.687,413.739,-179.986,176.92,225.041
93,0,94.7426,424.29,1146.34,105.042,151.615,1130.37,-109.695,320.025,1204.12,-98.4829,217.209,1191.55,36.4497,479.618,861.731,43.1358,443.472,664.233,20.443,427.16,455.605,-14.8881,356.383,238.608,-74.846,299.448,192.269,136.521,369.803,193.907,118.434,97.8635,844.608,139.148,123.462,654.013,-12.7975,116.589,513.646,-205.187,156.609,367.183,-257.355,209.334,416.044,-169.097,176.772,228.549
94,0,94.0115,425.08,1145.87,104.527,152.203,1131.04,-110.17,320.89,1204.31,-99.0918,218.172,1191.8,33.6428,479.849,861.23,38.7367,443.694,663.701,15.1562,427.084,455.28,-20.9211,356.221,238.537,-81.0569,299.206,192.281,130.265,369.678,193.651,122.197,97.9041,846.44,147.953,124.279,656.87,-3.17373,117.322,516.332,-195.324,157.098,369.284,-248.466,209.988,416.919,-156.608,176.588,231.65
95,0,93.2211,425.824,1145.37,103.989,152.741,1131.78,-110.67,321.684,1204.54,-99.7097,219.057,1192.17,31.0268,479.981,860.739,34.3985,443.8,663.202,9.92078,426.936,454.994,-26.9465,356.036,238.504,-87.2536,298.965,192.324,124.029,369.523,193.405,125.51,97.9031,848.325,156.275,125.146,659.936,6.33516,118.174,518.761,-185.004,157.666,370.365,-239.452,210.661,416.32,-142.62,176.399,234.272
96,0,92.3819,426.517,1144.84,103.439,153.232,1132.6,-111.184,322.399,1204.82,-100.325,219.855,1192.64,28.5924,480.013,860.264,30.131,443.794,662.743,4.73848,426.723,454.752,-32.9689,355.829,238.512,-93.4313,298.726,192.404,117.809,369.343,193.166,128.411,97.8703,850.249,164.085,126.055,663.167,15.7261,119.132,520.88,-174.211,158.319,370.375,-230.238,211.367,414.227,-127.249,176.237,236.369
97,0,91.505,427.156,1144.3,102.888,153.678,1133.49,-111.705,323.032,1205.13,-100.927,220.558,1193.23,26.3161,479.947,859.813,25.936,443.681,662.332,-0.393472,426.453,454.562,-38.9923,355.599,238.56,-99.5874,298.489,192.527,111.601,369.141,192.933,130.949,97.8168,852.204,171.359,126.999,666.516,25.0046,120.184,522.644,-162.915,159.062,369.28,-220.73,212.114,410.643,-110.618,176.14,237.921
98,0,90.6019,427.738,1143.75,102.347,154.081,1134.44,-112.222,323.58,1205.5,-101.504,221.162,1193.94,24.1639,479.785,859.393,21.8088,443.471,661.976,-5.48154,426.135,454.428,-45.02,355.348,238.649,-105.722,298.254,192.702,105.402,368.924,192.705,133.18,97.7542,854.184,178.072,127.972,669.933,34.1825,121.312,524.013,-151.073,159.898,367.076,-210.819,212.906,405.599,-92.8483,176.148,238.935
99,0,89.6845,428.259,1143.19,101.828,154.441,1135.46,-112.725,324.041,1205.93,-102.047,221.663,1194.75,22.0949,479.527,859.013,17.7398,443.175,661.683,-10.5347,425.776,454.358,-51.0542,355.078,238.783,-111.837,298.023,192.939,99.2072,368.697,192.48,135.158,97.694,856.187,184.202,128.968,673.371,43.2755,122.503,524.956,-138.634,160.827,363.78,-200.387,213.744,399.151,-74.0563,176.303,239.441
100,0,88.7649,428.716,1142.63,101.343,154.762,1136.53,-113.203,324.415,1206.42,-102.545,222.061,1195.67,20.0652,479.177,858.682,13.7165,442.802,661.46,-15.563,425.387,454.359,-57.0958,354.791,238.963,-117.936,297.795,193.251,93.0143,368.466,192.257,136.935,97.6464,858.214,189.726,129.983,676.778,52.3002,123.74,525.455,-125.541,161.847,359.439,-189.315,214.625,391.381,-54.3517,176.646,239.488
101,0,87.8554,429.106,1142.09,100.905,155.042,1137.66,-113.647,324.702,1206.97,-102.988,222.353,1196.68,18.0318,478.74,858.409,9.72515,442.366,661.314,-20.5767,424.974,454.435,-63.1451,354.491,239.195,-124.025,297.572,193.652,86.8207,368.237,192.036,138.557,97.6198,860.261,194.625,131.012,680.107,61.2714,125.011,525.501,-111.736,162.956,354.126,-177.493,215.54,382.4,-33.837,177.217,239.138
102,0,86.9682,429.427,1141.56,100.525,155.285,1138.82,-114.046,324.904,1207.59,-103.369,222.543,1197.78,15.9566,478.22,858.202,5.75294,441.877,661.25,-25.5848,424.547,454.593,-69.2014,354.182,239.486,-130.109,297.354,194.157,80.624,368.017,191.818,140.059,97.6198,862.326,198.883,132.054,683.311,70.1986,126.304,525.097,-97.1707,164.149,347.94,-164.822,216.485,372.347,-12.6094,178.05,238.463
103,0,86.1155,429.677,1141.05,100.215,155.49,1140.01,-114.389,325.023,1208.28,-103.676,222.633,1198.96,13.8086,477.624,858.068,1.78932,441.349,661.271,-30.5943,424.112,454.836,-75.2636,353.871,239.844,-136.195,297.143,194.777,74.4218,367.809,191.603,141.466,97.649,864.4,202.489,133.106,686.347,79.0835,127.612,524.258,-81.8091,165.425,341.006,-151.229,217.453,361.389,9.23451,179.175,237.535
104,0,85.3094,429.858,1140.56,99.9895,155.659,1141.22,-114.668,325.059,1209.03,-103.903,222.625,1200.2,11.5667,476.961,858.012,-2.17256,440.791,661.38,-35.6093,423.676,455.168,-81.3295,353.562,240.276,-142.286,296.94,195.527,68.2119,367.618,191.393,142.791,97.7066,866.47,205.438,134.164,689.175,87.9172,128.928,523.012,-65.64,166.783,333.467,-136.672,218.443,349.715,31.5937,180.613,236.429
105,0,84.5616,429.968,1140.11,99.8593,155.793,1142.42,-114.872,325.013,1209.84,-104.04,222.522,1201.47,9.22071,476.239,858.039,-6.13501,440.216,661.577,-40.631,423.246,455.59,-87.3965,353.262,240.791,-148.388,296.747,196.414,61.9918,367.447,191.189,144.036,97.7883,868.516,207.734,135.227,691.758,96.6783,130.25,521.394,-48.684,168.224,325.484,-121.148,219.46,337.536,54.356,182.372,235.208
106,0,83.8835,430.012,1139.69,99.8368,155.894,1143.62,-114.993,324.888,1210.69,-104.078,222.328,1202.77,6.77171,475.47,858.148,-10.0952,439.631,661.859,-45.657,422.826,456.099,-93.4611,352.978,241.395,-154.503,296.566,197.443,55.7589,367.296,190.991,145.194,97.8874,870.513,209.391,136.292,694.068,105.332,131.577,519.449,-31.0017,169.749,317.227,-104.701,220.516,325.077,77.3918,184.449,233.931
107,0,83.286,429.99,1139.31,99.9335,155.963,1144.78,-115.023,324.682,1211.58,-104.009,222.046,1204.07,4.23194,474.664,858.338,-14.0452,439.045,662.222,-50.6816,422.42,456.692,-99.5189,352.716,242.094,-160.63,296.399,198.618,49.5105,367.164,190.802,146.254,97.9954,872.431,210.432,137.356,696.08,113.827,132.909,517.228,-12.6996,171.364,308.871,-87.4258,221.63,312.571,100.548,186.824,232.639
108,0,82.7791,429.909,1138.97,100.16,156.003,1145.89,-114.954,324.395,1212.48,-103.825,221.679,1205.34,1.62373,473.833,858.604,-17.9718,438.464,662.659,-55.6962,422.031,457.365,-105.565,352.482,242.888,-166.772,296.248,199.933,43.2436,367.052,190.621,147.197,98.1031,874.236,210.892,138.414,697.774,122.1,134.246,514.785,6.06573,173.074,300.587,-69.4724,222.831,300.251,123.646,189.462,231.364
109,0,82.3724,429.773,1138.68,100.527,156.017,1146.94,-114.781,324.027,1213.39,-103.519,221.23,1206.57,-1.02194,472.99,858.939,-21.8571,437.894,663.159,-60.6897,421.66,458.107,-111.593,352.279,243.777,-172.925,296.112,201.381,36.9553,366.956,190.447,148.008,98.2021,875.888,210.818,139.463,699.141,130.075,135.589,512.178,25.0875,174.884,292.534,-51.0454,224.149,288.337,146.474,192.313,230.12
110,0,82.0741,429.589,1138.43,101.043,156.008,1147.9,-114.499,323.577,1214.28,-103.082,220.7,1207.72,-3.66717,472.146,859.33,-25.6793,437.339,663.71,-65.6488,421.31,458.91,-117.598,352.112,244.754,-179.088,295.994,202.951,30.6424,366.872,190.281,148.672,98.2862,877.351,210.265,140.495,700.173,137.665,136.939,509.462,44.1112,176.796,284.856,-32.401,225.619,277.033,168.794,195.311,228.907
111,0,81.8918,429.363,1138.23,101.716,155.979,1148.77,-114.103,323.043,1215.13,-102.51,220.093,1208.78,-6.26912,471.312,859.764,-29.4129,436.802,664.298,-70.5585,420.979,459.762,-123.576,351.981,245.813,-185.261,295.891,204.626,24.3014,366.796,190.121,149.184,98.3526,878.585,209.297,141.507,700.872,144.777,138.293,506.686,62.8423,178.812,277.669,-13.8396,227.273,266.514,190.343,198.379,227.711
112,0,81.8317,429.102,1138.08,102.55,155.933,1149.53,-113.591,322.425,1215.92,-101.798,219.41,1209.72,-8.78188,470.5,860.225,-33.0298,436.285,664.906,-75.4028,420.669,460.648,-129.523,351.886,246.943,-191.443,295.804,206.39,17.9289,366.726,189.967,149.544,98.4035,879.557,207.984,142.492,701.243,151.316,139.649,503.896,80.9568,180.925,271.063,4.30431,229.134,256.918,210.839,201.434,226.508
113,0,81.8986,428.813,1137.96,103.549,155.874,1150.16,-112.962,321.723,1216.62,-100.941,218.653,1210.52,-11.1583,469.719,860.695,-36.4997,435.791,665.515,-80.1646,420.379,461.556,-135.438,351.825,248.13,-197.633,295.729,208.221,11.5208,366.657,189.817,149.765,98.446,880.238,206.4,143.443,701.298,157.19,141.001,501.128,98.116,183.124,265.096,21.6763,231.215,248.346,229.992,204.391,225.265
114,0,82.0962,428.505,1137.89,104.716,155.804,1150.65,-112.215,320.939,1217.22,-99.9381,217.826,1211.17,-13.3517,468.978,861.153,-39.7903,435.322,666.107,-84.826,420.109,462.47,-141.323,351.793,249.363,-203.833,295.666,210.101,5.07359,366.586,189.672,149.87,98.4928,880.606,204.618,144.355,701.051,162.316,142.343,498.41,113.983,185.392,259.791,37.9191,233.513,240.849,247.517,207.166,223.948
115,0,82.4263,428.182,1137.86,106.048,155.727,1151,-111.353,320.074,1217.7,-98.79,216.931,1211.64,-15.3172,468.284,861.58,-42.8683,434.88,666.663,-89.3679,419.86,463.377,-147.18,351.785,250.63,-210.045,295.613,212.012,-1.41624,366.513,189.531,149.892,98.561,880.648,202.71,145.221,700.52,166.623,143.666,495.762,128.242,187.702,255.143,52.6906,236.005,234.439,263.151,209.691,222.521
116,0,82.8893,427.852,1137.86,107.543,155.643,1151.2,-110.379,319.134,1218.04,-97.4991,215.973,1211.94,-17.0132,467.645,861.955,-45.6992,434.47,667.163,-93.7703,419.632,464.263,-153.016,351.798,251.921,-216.273,295.569,213.939,-7.95106,366.437,189.392,149.873,98.6708,880.361,200.741,146.037,699.724,170.06,144.962,493.193,140.617,190.022,251.118,65.6836,238.65,229.081,276.666,211.907,220.959
117,0,83.4841,427.518,1137.89,109.193,155.556,1151.24,-109.297,318.123,1218.23,-96.0709,214.957,1212.05,-18.4019,467.067,862.259,-48.2474,434.095,667.588,-98.0114,419.427,465.117,-158.836,351.825,253.228,-222.52,295.534,215.872,-14.5316,366.358,189.257,149.858,98.8436,879.756,198.767,146.795,698.686,172.595,146.218,490.708,150.885,192.313,247.658,76.6431,241.389,224.702,287.883,213.779,219.248
118,0,84.2077,427.185,1137.94,110.988,155.464,1151.13,-108.115,317.051,1218.25,-94.5134,213.889,1211.98,-19.4503,466.554,862.474,-50.4766,433.762,667.92,-102.067,419.249,465.928,-164.644,351.865,254.547,-228.787,295.511,217.807,-21.1562,366.278,189.126,149.894,99.0987,878.849,196.835,147.491,697.429,174.221,147.424,488.303,158.898,194.534,244.691,85.3824,244.146,221.2,296.689,215.29,217.387
119,0,85.0556,426.856,1138.02,112.918,155.368,1150.87,-106.84,315.927,1218.12,-92.8371,212.779,1211.72,-20.131,466.112,862.586,-52.3501,433.48,668.145,-105.911,419.103,466.688,-170.444,351.917,255.879,-235.073,295.507,219.749,-27.8198,366.199,188.998,150.022,99.4508,877.672,194.977,148.119,695.975,174.957,148.569,485.972,164.583,196.643,242.137,91.7943,246.841,218.448,303.043,216.446,215.396
120,0,86.0216,426.532,1138.1,114.967,155.266,1150.47,-105.482,314.763,1217.82,-91.0553,211.633,1211.3,-20.4222,465.744,862.584,-53.8305,433.258,668.248,-109.515,418.995,467.394,-176.234,351.984,257.229,-241.375,295.528,221.711,-34.5138,366.121,188.872,150.274,99.9065,876.262,193.216,148.674,694.348,174.843,149.642,483.708,167.953,198.599,239.912,95.8577,249.388,216.308,306.982,217.271,213.308
121,0,87.098,426.211,1138.2,117.116,155.156,1149.93,-104.051,313.573,1217.37,-89.1841,210.464,1210.71,-20.3078,465.455,862.458,-54.8806,433.108,668.22,-112.845,418.933,468.042,-182.005,352.07,258.607,-247.682,295.585,223.716,-41.2256,366.046,188.749,150.667,100.462,874.662,191.557,149.15,692.575,173.941,150.633,481.504,169.102,200.366,237.94,97.6376,251.708,214.64,308.617,217.805,211.172
122,0,88.2755,425.895,1138.29,119.347,155.034,1149.28,-102.56,312.372,1216.77,-87.2414,209.283,1209.99,-19.778,465.248,862.208,-55.4634,433.045,668.052,-115.868,418.926,468.633,-187.743,352.187,260.028,-253.977,295.689,225.799,-47.9391,365.972,188.625,151.2,101.103,872.922,189.997,149.54,690.679,172.333,151.533,479.355,168.198,201.916,236.155,97.2799,253.735,213.311,308.134,218.098,209.046
123,0,89.5437,425.578,1138.38,121.638,154.897,1148.52,-101.023,311.175,1216.03,-85.2475,208.101,1209.14,-18.8287,465.126,861.834,-55.5435,433.085,667.742,-118.544,418.986,469.172,-193.424,352.345,261.512,-260.234,295.855,228.004,-54.6362,365.897,188.496,151.852,101.801,871.09,188.519,149.839,688.688,170.109,152.335,477.26,165.472,203.231,234.503,94.9999,255.422,212.204,305.772,218.205,206.992
124,0,90.8908,425.26,1138.47,123.964,154.738,1147.67,-99.4521,309.999,1215.19,-83.2242,206.932,1208.21,-17.4618,465.092,861.342,-55.0874,433.245,667.29,-120.836,419.126,469.666,-199.015,352.558,263.084,-266.418,296.096,230.385,-61.2982,365.815,188.357,152.581,102.517,869.212,187.099,150.041,686.629,167.369,153.03,475.219,161.199,204.302,232.947,91.0662,256.742,211.225,301.818,218.181,205.068
125,0,92.3041,424.934,1138.54,126.301,154.555,1146.76,-97.8633,308.86,1214.25,-81.1942,205.788,1207.2,-15.6844,465.151,860.743,-54.0646,433.543,666.699,-122.7,419.358,470.125,-204.474,352.841,264.776,-272.482,296.421,233.004,-67.9081,365.718,188.201,153.327,103.204,867.333,185.705,150.139,684.531,164.213,153.613,473.241,155.682,205.131,231.466,85.7813,257.692,210.303,296.578,218.073,203.324
126,0,93.77,424.596,1138.6,128.623,154.34,1145.8,-96.2713,307.773,1213.24,-79.1811,204.681,1206.16,-13.5085,465.304,860.051,-52.4491,433.997,665.979,-124.098,419.695,470.562,-209.752,353.208,266.623,-278.37,296.841,235.93,-74.453,365.595,188.022,154.017,103.812,865.489,184.301,150.129,682.423,160.735,154.08,471.333,149.231,205.731,230.053,79.4614,258.291,209.397,290.368,217.923,201.796
127,0,95.2744,424.242,1138.65,130.905,154.089,1144.82,-94.6915,306.753,1212.19,-77.2086,203.625,1205.11,-10.9509,465.553,859.284,-50.2198,434.625,665.141,-124.988,420.151,470.991,-214.79,353.672,268.663,-284.015,297.36,239.234,-80.9258,365.436,187.812,154.57,104.288,863.709,182.849,150.005,680.334,157.019,154.426,469.508,142.142,206.121,228.711,72.416,258.574,208.486,283.487,217.761,200.506
128,0,96.8027,423.866,1138.68,133.12,153.797,1143.84,-93.1389,305.811,1211.12,-75.2998,202.629,1204.07,-8.03234,465.901,858.461,-47.3625,435.44,664.202,-125.334,420.739,471.431,-219.526,354.241,270.939,-289.342,297.975,242.986,-87.3265,365.227,187.568,154.903,104.587,862.016,181.311,149.766,678.295,153.135,154.651,467.779,134.686,206.329,227.452,64.9304,258.593,207.573,276.205,217.604,199.458
129,0,98.3401,423.463,1138.7,135.245,153.459,1142.87,-91.6286,304.959,1210.05,-73.4771,201.703,1203.08,-4.77678,466.348,857.605,-43.87,436.457,663.183,-125.103,421.469,471.9,-223.893,354.921,273.495,-294.267,298.68,247.252,-93.6618,364.958,187.29,154.943,104.673,860.425,179.651,149.411,676.332,149.139,154.754,466.159,127.093,206.382,226.292,57.2519,258.402,206.675,268.754,217.461,198.643
130,0,99.8718,423.029,1138.7,137.255,153.071,1141.94,-90.1745,304.203,1209,-71.7614,200.856,1202.15,-1.21112,466.894,856.739,-39.7433,437.684,662.106,-124.267,422.351,472.418,-227.823,355.712,276.372,-298.706,299.461,252.087,-99.9428,364.621,186.985,154.629,104.523,858.945,177.836,148.94,674.472,145.068,154.737,464.66,119.547,206.313,225.246,49.5802,258.059,205.817,261.315,217.332,198.036
131,0,101.383,422.562,1138.7,139.129,152.632,1141.06,-88.7901,303.55,1208.01,-70.1716,200.093,1201.3,2.6356,467.537,855.885,-34.9922,439.125,660.997,-122.807,423.391,473.004,-231.25,356.608,279.609,-302.573,300.299,257.533,-106.182,364.213,186.672,153.922,104.131,857.583,175.834,148.357,672.738,140.943,154.603,463.291,112.181,206.149,224.325,42.0633,257.617,205.029,254.02,217.211,197.606
132,0,102.86,422.058,1138.68,140.847,152.139,1140.26,-87.4879,303.001,1207.07,-68.7246,199.417,1200.55,6.73273,468.274,855.066,-29.635,440.778,659.884,-120.711,424.592,473.679,-234.113,357.599,283.238,-305.786,301.17,263.613,-112.385,363.744,186.379,152.804,103.507,856.34,173.623,147.67,671.146,136.77,154.358,462.059,105.08,205.918,223.539,34.7978,257.122,204.339,246.951,217.088,197.317
133,0,104.289,421.516,1138.67,142.393,151.592,1139.53,-86.2789,302.557,1206.21,-67.4344,198.833,1199.91,11.0486,469.101,854.304,-23.6991,442.638,658.798,-117.974,425.955,474.461,-236.358,358.671,287.283,-308.274,302.05,270.324,-118.549,363.23,186.152,151.28,102.677,855.217,171.18,146.887,669.71,132.546,154.011,460.966,98.2817,205.642,222.89,27.8329,256.609,203.768,240.146,216.952,197.131
134,0,105.658,420.937,1138.65,143.752,150.992,1138.88,-85.173,302.213,1205.44,-66.3125,198.338,1199.38,15.5509,470.011,853.619,-17.2199,444.692,657.767,-114.603,427.476,475.369,-237.937,359.808,291.753,-309.977,302.913,277.641,-124.649,362.703,186.047,149.38,101.679,854.213,168.491,146.019,668.438,128.258,153.573,460.012,91.7901,205.341,222.372,21.1782,256.105,203.329,233.61,216.794,197.012
135,0,106.954,420.322,1138.65,144.913,150.341,1138.33,-84.1785,301.965,1204.77,-65.3673,197.932,1198.98,20.2073,470.999,853.029,-10.2405,446.919,656.824,-110.615,429.147,476.418,-238.815,360.992,296.642,-310.851,303.736,285.509,-130.636,362.208,186.134,147.147,100.558,853.33,165.545,145.08,667.33,123.889,153.059,459.191,85.5784,205.028,221.977,14.812,255.626,203.027,227.319,216.605,196.93
136,0,108.166,419.673,1138.65,145.869,149.643,1137.87,-83.3024,301.805,1204.19,-64.6042,197.612,1198.69,24.9859,472.053,852.552,-2.8104,449.297,655.997,-106.033,430.957,477.62,-238.968,362.207,301.927,-310.872,304.504,293.845,-136.428,361.799,186.492,144.635,99.3657,852.564,162.337,144.086,666.383,119.419,152.485,458.494,79.6008,204.716,221.69,8.69183,255.183,202.856,221.23,216.383,196.861
137,0,109.286,418.994,1138.68,146.613,148.902,1137.51,-82.5497,301.724,1203.71,-64.0255,197.371,1198.52,29.8552,473.166,852.202,5.01541,451.795,655.316,-100.892,432.891,478.985,-238.384,363.443,307.564,-310.038,305.206,302.539,-141.911,361.542,187.198,141.902,98.1508,851.915,158.868,143.055,665.587,114.833,151.869,457.912,73.8005,204.414,221.493,2.76312,254.78,202.801,215.292,216.127,196.788
138,0,110.304,418.291,1138.73,147.146,148.125,1137.23,-81.9241,301.711,1203.33,-63.6307,197.205,1198.45,34.7852,474.325,851.993,13.1781,454.38,654.805,-95.2328,434.932,480.517,-237.062,364.693,313.494,-308.366,305.846,311.458,-146.936,361.506,188.329,139.005,96.9585,851.377,155.143,142.006,664.927,110.117,151.23,457.431,68.1176,204.128,221.368,-3.0323,254.42,202.843,209.454,215.84,196.698
139,0,111.215,417.569,1138.81,147.467,147.318,1137.03,-81.4275,301.756,1203.04,-63.4164,197.106,1198.47,39.7469,475.519,851.935,21.6162,457.015,654.49,-89.1036,437.058,482.217,-235.012,365.957,319.638,-305.892,306.436,320.449,-151.329,361.758,189.943,135.988,95.8261,850.945,151.173,140.957,664.388,105.261,150.59,457.038,62.4954,203.865,221.297,-8.74978,254.105,202.957,203.666,215.53,196.587
140,0,112.013,416.837,1138.94,147.583,146.491,1136.91,-81.0601,301.847,1202.84,-63.3767,197.068,1198.58,44.7133,476.735,852.037,30.2671,459.663,654.388,-82.5559,439.247,484.079,-232.254,367.244,325.902,-302.669,307.001,329.346,-154.897,362.353,192.077,132.888,94.7816,850.612,146.974,139.928,663.95,100.264,149.968,456.718,56.8842,203.629,221.263,-14.4373,253.837,203.121,197.888,215.204,196.452
141,0,112.695,416.101,1139.1,147.498,145.651,1136.85,-80.8208,301.974,1202.72,-63.5034,197.082,1198.76,49.6589,477.962,852.302,39.0683,462.283,654.517,-75.6445,441.474,486.093,-228.814,368.568,332.182,-298.764,307.574,337.977,-157.44,363.333,194.739,129.727,93.8426,850.364,142.565,138.94,663.591,95.1268,149.381,456.456,51.245,203.426,221.251,-20.1327,253.62,203.31,192.087,214.871,196.295
142,0,113.257,415.371,1139.32,147.223,144.808,1136.83,-80.7067,302.125,1202.67,-63.7862,197.142,1198.99,54.5606,479.186,852.735,47.9586,464.838,654.886,-68.4249,443.715,488.241,-224.724,369.947,338.364,-294.25,308.195,346.168,-158.769,364.717,197.901,126.516,93.0176,850.191,137.97,138.009,663.293,89.8572,148.846,456.241,45.5496,203.259,221.248,-25.8627,253.46,203.505,186.242,214.542,196.119
143,0,113.7,414.655,1139.59,146.768,143.971,1136.86,-80.7136,302.293,1202.68,-64.2133,197.24,1199.26,59.3971,480.397,853.334,56.8788,467.292,655.503,-60.9515,445.943,490.5,-220.018,371.405,344.33,-289.202,308.909,353.753,-158.717,366.503,201.499,123.257,92.3071,850.077,133.216,137.154,663.036,84.4669,148.377,456.061,39.7809,203.131,221.248,-31.6437,253.361,203.692,180.341,214.224,195.93
144,0,114.026,413.962,1139.92,146.146,143.151,1136.91,-80.8359,302.469,1202.77,-64.7712,197.371,1199.57,64.1488,481.581,854.094,65.7726,469.61,656.368,-53.2762,448.135,492.841,-214.732,372.961,349.961,-283.693,309.759,360.579,-157.154,368.66,205.439,119.949,91.7063,850.009,128.331,136.388,662.805,78.9706,147.984,455.905,33.9318,203.045,221.244,-37.4826,253.329,203.86,174.381,213.926,195.729
145,0,114.236,413.3,1140.31,145.371,142.357,1136.98,-81.0668,302.649,1202.9,-65.4459,197.53,1199.9,68.7982,482.728,855.01,74.5867,471.764,657.477,-45.4469,450.268,495.23,-208.9,374.634,355.144,-277.787,310.786,366.51,-153.999,371.142,209.597,116.59,91.2072,849.973,123.345,135.724,662.586,73.3851,147.675,455.768,28.0027,203.003,221.233,-43.3792,253.366,204.007,168.365,213.652,195.523
146,0,114.335,412.678,1140.77,144.458,141.598,1137.04,-81.3983,302.828,1203.1,-66.2224,197.712,1200.25,73.329,483.828,856.071,83.271,473.727,658.821,-37.5066,452.319,497.629,-202.554,376.436,359.772,-271.54,312.019,371.432,-149.219,373.886,213.832,113.18,90.8012,849.955,118.285,135.172,662.37,67.7282,147.452,455.643,22,203.004,221.216,-49.3284,253.475,204.132,162.298,213.405,195.312
147,0,114.329,412.103,1141.29,143.421,140.885,1137.11,-81.8215,303.006,1203.35,-67.0855,197.914,1200.62,77.7257,484.872,857.265,91.7784,475.478,660.385,-29.4924,454.27,499.996,-195.725,378.372,363.751,-264.989,313.48,375.253,-142.837,376.821,217.996,109.725,90.4811,849.944,113.178,134.737,662.152,62.018,147.317,455.529,15.9338,203.047,221.194,-55.3222,253.653,204.241,156.189,213.187,195.099
148,0,114.226,411.582,1141.89,142.276,140.225,1137.16,-82.3266,303.183,1203.66,-68.02,198.135,1200.99,81.9738,485.85,858.578,100.065,477.001,662.153,-21.4357,456.104,502.286,-188.441,380.435,366.999,-258.159,315.175,377.907,-134.921,379.879,221.947,106.238,90.2423,849.933,108.048,134.423,661.93,56.2714,147.267,455.424,9.8157,203.128,221.172,-61.3515,253.893,204.342,150.049,212.998,194.886
149,0,114.033,411.122,1142.56,141.038,139.625,1137.2,-82.9029,303.362,1204.03,-69.0109,198.375,1201.39,86.0586,486.754,859.994,108.088,478.283,664.101,-13.3618,457.808,504.455,-180.726,382.613,369.452,-251.058,317.099,379.349,-125.579,383.001,225.556,102.733,90.0834,849.914,102.915,134.229,661.705,50.5044,147.296,455.331,3.65744,203.242,221.156,-67.4077,254.187,204.446,143.884,212.836,194.674
150,0,113.76,410.726,1143.31,139.723,139.094,1137.22,-83.5393,303.546,1204.46,-70.0436,198.634,1201.79,89.9655,487.577,861.497,115.809,479.317,666.204,-5.2904,459.37,506.459,-172.603,384.881,371.063,-243.677,319.234,379.559,-114.947,386.139,228.717,99.2304,90.006,849.884,97.7962,134.152,661.483,44.7308,147.395,455.255,-2.53018,203.382,221.15,-73.4831,254.522,204.565,137.702,212.697,194.464
151,0,113.419,410.4,1144.13,138.343,138.636,1137.22,-84.224,303.743,1204.96,-71.1044,198.915,1202.23,93.6795,488.312,863.072,123.187,480.098,668.434,2.76375,460.782,508.259,-164.091,387.212,371.803,-235.996,321.551,378.536,-103.176,389.263,231.354,95.7464,90.0139,849.843,92.7025,134.185,661.271,38.9625,147.557,455.2,-8.73809,203.539,221.164,-79.5721,254.881,204.71,131.507,212.577,194.255
152,0,113.022,410.144,1145.02,136.915,138.257,1137.19,-84.9451,303.96,1205.54,-72.1801,199.22,1202.69,97.1854,488.955,864.703,130.187,480.628,670.76,10.79,462.039,509.818,-155.207,389.573,371.661,-227.981,324.016,376.297,-90.4211,392.356,233.421,92.2948,90.1119,849.793,87.642,134.321,661.081,33.209,147.77,455.175,-14.9592,203.705,221.205,-85.6705,255.248,204.896,125.304,212.474,194.05
153,0,112.58,409.962,1145.98,135.45,137.959,1137.16,-85.6903,304.205,1206.21,-73.2587,199.555,1203.2,100.468,489.5,866.376,136.77,480.909,673.152,18.7809,463.137,511.107,-145.961,391.933,370.642,-219.59,326.59,372.875,-76.8298,395.414,234.904,88.8834,90.3048,849.739,82.6189,134.549,660.922,27.4778,148.024,455.188,-21.1882,203.869,221.284,-91.7757,255.605,205.133,119.093,212.381,193.847
154,0,112.107,409.852,1147.01,133.962,137.745,1137.11,-86.447,304.487,1206.96,-74.3289,199.924,1203.76,103.512,489.945,868.077,142.903,480.947,675.577,26.7312,464.077,512.103,-136.359,394.26,368.763,-210.773,329.235,368.32,-62.5334,398.438,235.812,85.5125,90.5958,849.689,77.6343,134.857,660.806,21.7743,148.307,455.25,-27.4217,204.021,221.409,-97.8861,255.936,205.435,112.873,212.296,193.648
155,0,111.616,409.815,1148.09,132.462,137.616,1137.06,-87.203,304.817,1207.8,-75.3804,200.333,1204.37,106.304,490.289,869.795,148.549,480.751,678.003,34.6363,464.858,512.792,-126.398,396.531,366.056,-201.478,331.915,362.691,-47.6413,401.427,236.183,82.175,90.9856,849.653,72.687,135.232,660.746,16.1023,148.608,455.37,-33.6572,204.151,221.591,-104.001,256.224,205.812,106.644,212.215,193.452
156,0,111.123,409.848,1149.24,130.962,137.57,1137.01,-87.9458,305.202,1208.74,-76.4038,200.788,1205.06,108.831,490.532,871.518,153.677,480.331,680.398,42.4918,465.482,513.168,-116.067,398.727,362.565,-191.649,334.602,356.066,-32.2378,404.376,236.066,78.8579,91.4721,849.641,67.7748,135.662,660.753,10.464,148.918,455.56,-39.8932,204.251,221.84,-110.12,256.458,206.279,100.405,212.135,193.261
157,0,110.64,409.949,1150.44,129.473,137.607,1136.96,-88.6633,305.654,1209.77,-77.3906,201.296,1205.82,111.082,490.679,873.236,158.255,479.701,682.733,50.2918,465.953,513.235,-105.347,400.835,358.34,-181.232,337.27,348.531,-16.3821,407.262,235.526,75.5445,92.0499,849.667,62.8948,136.135,660.837,4.86107,149.228,455.829,-46.1285,204.315,222.166,-116.242,256.626,206.845,94.1524,212.052,193.074
158,0,110.183,410.113,1151.68,128.007,137.723,1136.94,-89.3436,306.179,1210.9,-78.3327,201.863,1206.66,113.051,490.736,874.94,162.258,478.875,684.977,58.0281,466.273,513.006,-94.2093,402.848,353.445,-170.177,339.901,340.188,-0.110296,410.05,234.634,72.217,92.711,849.744,58.045,136.637,661.007,-0.705632,149.53,456.186,-52.3615,204.338,222.578,-122.365,256.724,207.524,87.8857,211.964,192.891
159,0,109.766,410.337,1152.95,126.572,137.914,1136.95,-89.9751,306.786,1212.12,-79.2232,202.496,1207.58,114.732,490.71,876.62,165.661,477.869,687.104,65.6897,466.447,512.502,-82.6172,404.76,347.952,-158.438,342.483,331.152,16.5605,412.685,233.466,68.8598,93.4446,849.886,53.2246,137.159,661.269,-6.23524,149.818,456.64,-58.5908,204.317,223.084,-128.489,256.75,208.326,81.6031,211.871,192.711
160,0,109.402,410.617,1154.24,125.18,138.176,1136.98,-90.5467,307.481,1213.43,-80.0551,203.2,1208.58,116.124,490.615,878.266,168.448,476.703,689.09,73.2612,466.479,511.749,-70.5301,406.566,341.943,-145.981,345.004,321.548,33.6255,415.095,232.097,65.4622,94.2389,850.103,48.4346,137.691,661.629,-11.7267,150.089,457.196,-64.8142,204.254,223.691,-134.612,256.703,209.262,75.3036,211.77,192.534
161,0,109.104,410.946,1155.55,123.841,138.502,1137.06,-91.0479,308.269,1214.8,-80.8223,203.982,1209.66,117.231,490.464,879.866,170.608,475.396,690.911,80.7231,466.372,510.78,-57.9072,408.26,335.513,-132.781,347.451,311.518,51.0858,417.197,230.605,62.0198,95.0814,850.405,43.6784,138.226,662.089,-17.1786,150.34,457.858,-71.0292,204.149,224.402,-140.73,256.59,210.341,68.9862,211.662,192.36
162,0,108.886,411.32,1156.86,122.566,138.887,1137.17,-91.4688,309.155,1216.24,-81.5188,204.846,1210.8,118.059,490.275,881.408,172.136,473.969,692.548,88.0509,466.133,509.632,-44.7137,409.827,328.767,-118.831,349.808,301.209,68.9397,418.902,229.068,58.5368,95.9597,850.8,38.9616,138.756,662.647,-22.5888,150.568,458.628,-77.2331,204.008,225.222,-146.841,256.418,211.57,62.6503,211.545,192.19
163,0,108.76,411.733,1158.15,121.364,139.324,1137.34,-91.8,310.14,1217.71,-82.1389,205.795,1212,118.617,490.065,882.877,173.04,472.445,693.986,95.2154,465.765,508.342,-30.9273,411.248,321.822,-104.143,352.054,290.78,87.175,420.122,227.563,55.0249,96.8627,851.29,34.292,139.278,663.302,-27.9547,150.776,459.504,-83.4229,203.836,226.149,-152.943,256.196,212.953,56.2951,211.42,192.022
164,0,108.736,412.182,1159.41,120.245,139.805,1137.55,-92.0332,311.225,1219.21,-82.677,206.833,1213.25,118.919,489.854,884.256,173.333,470.848,695.212,102.183,465.275,506.949,-16.5469,412.495,314.806,-88.7541,354.157,280.391,105.761,420.78,226.168,51.5038,97.781,851.874,29.6796,139.788,664.047,-33.273,150.964,460.483,-89.596,203.641,227.183,-159.032,255.938,214.491,49.9198,211.288,191.858
165,0,108.826,412.661,1160.63,119.221,140.326,1137.81,-92.161,312.41,1220.7,-83.1279,207.961,1214.52,118.978,489.66,885.529,173.04,469.203,696.214,108.915,464.67,505.488,-1.5994,413.534,307.852,-72.7295,356.082,270.201,124.643,420.821,224.963,47.999,98.7072,852.549,25.1356,140.286,664.873,-38.54,151.134,461.556,-95.7503,203.431,228.318,-165.105,255.655,216.179,43.5229,211.148,191.699
166,0,109.037,413.167,1161.79,118.301,140.88,1138.11,-92.177,313.691,1222.17,-83.4864,209.179,1215.79,118.813,489.501,886.674,172.196,467.536,696.988,115.369,463.958,503.99,13.8526,414.327,301.094,-56.1665,357.784,260.364,143.734,420.213,224.021,44.5404,99.6358,853.303,20.6724,140.77,665.771,-43.7519,151.29,462.715,-101.884,203.214,229.549,-171.162,255.361,218.012,37.1026,211.003,191.545
167,0,109.378,413.696,1162.88,117.494,141.46,1138.45,-92.0758,315.066,1223.58,-83.7477,210.485,1217.03,118.443,489.39,887.672,170.848,465.873,697.531,121.504,463.148,502.482,29.7061,414.836,294.664,-39.1966,359.215,251.021,162.914,418.961,223.413,41.1604,100.563,854.124,16.3029,141.242,666.726,-48.9045,151.433,463.948,-107.997,202.997,230.866,-177.2,255.068,219.976,30.6564,210.852,191.398
168,0,109.854,414.245,1163.87,116.811,142.063,1138.82,-91.8536,316.529,1224.91,-83.9073,211.876,1218.23,117.891,489.339,888.5,169.048,464.238,697.842,127.272,462.252,500.982,45.8145,415.025,288.679,-21.9867,360.327,242.292,182.025,417.103,223.194,37.8917,101.488,854.996,12.0402,141.704,667.723,-53.9939,151.568,465.24,-114.091,202.786,232.259,-183.22,254.788,222.058,24.1811,210.696,191.26
169,0,110.47,414.813,1164.77,116.259,142.685,1139.22,-91.5078,318.072,1226.12,-83.9612,213.349,1219.36,117.181,489.353,889.138,166.862,462.656,697.927,132.631,461.283,499.504,61.9885,414.872,283.234,-4.73785,361.079,234.278,200.876,414.716,223.406,34.7665,102.408,855.899,7.89752,142.156,668.745,-59.0158,151.697,466.575,-120.167,202.585,233.715,-189.223,254.528,224.238,17.6728,210.535,191.13
170,0,111.229,415.398,1165.54,115.848,143.322,1139.63,-91.0375,319.689,1227.2,-83.9057,214.896,1220.38,116.341,489.435,889.568,164.36,461.152,697.791,137.539,460.257,498.053,77.9993,414.362,278.4,12.3182,361.437,227.051,219.244,411.907,224.06,31.8147,103.324,856.812,3.88796,142.601,669.772,-63.9663,151.821,467.937,-126.229,202.397,235.223,-195.21,254.295,226.495,11.1275,210.369,191.01
171,0,112.132,416,1166.19,115.582,143.973,1140.05,-90.443,321.37,1228.12,-83.7382,216.511,1221.28,115.403,489.579,889.773,161.619,459.746,697.444,141.958,459.192,496.627,93.5868,413.503,274.21,28.9254,361.381,220.651,236.881,408.811,225.138,29.0639,104.235,857.712,0.0247463,143.042,670.783,-68.8408,151.943,469.306,-132.282,202.222,236.766,-201.186,254.09,228.807,4.54076,210.196,190.898
172,0,113.178,416.62,1166.71,115.467,144.638,1140.45,-89.7267,323.104,1228.85,-83.4567,218.184,1222.02,114.402,489.777,889.742,158.72,458.46,696.9,145.857,458.105,495.221,108.47,412.316,270.663,44.8118,360.912,215.091,253.524,405.58,226.582,26.5389,105.141,858.577,-3.67834,143.48,671.758,-73.6343,152.063,470.664,-138.332,202.056,238.33,-207.156,253.911,231.151,-2.09124,210.016,190.795
173,0,114.365,417.258,1167.08,115.506,145.317,1140.83,-88.8926,324.881,1229.38,-83.0605,219.905,1222.58,113.376,490.015,889.469,155.747,457.309,696.174,149.213,457.017,493.822,122.361,410.844,267.718,59.7011,360.046,210.355,268.906,402.371,228.294,24.2618,106.041,859.384,-7.20643,143.917,672.672,-78.3407,152.182,471.992,-144.385,201.896,239.901,-213.128,253.751,233.504,-8.77169,209.826,190.698
174,0,115.688,417.915,1167.3,115.701,146.01,1141.18,-87.9461,326.689,1229.68,-82.5499,221.662,1222.94,112.37,490.278,888.957,152.781,456.309,695.282,152.012,455.949,492.417,134.981,409.144,265.304,73.3249,358.821,206.401,282.774,399.333,230.137,22.2526,106.933,860.109,-10.5429,144.355,673.502,-82.952,152.298,473.272,-150.447,201.734,241.464,-219.108,253.6,235.845,-15.5025,209.625,190.605
175,0,117.141,418.595,1167.36,116.052,146.722,1141.47,-86.8948,328.514,1229.74,-81.9266,223.444,1223.09,111.431,490.549,888.213,149.9,455.472,694.245,154.252,454.923,490.99,146.078,407.286,263.323,85.4368,357.296,203.167,294.898,396.6,231.942,20.5296,107.817,860.731,-13.6686,144.795,674.226,-87.458,152.411,474.486,-156.524,201.561,243.006,-225.106,253.442,238.155,-22.2835,209.411,190.512
176,0,118.714,419.3,1167.28,116.554,147.454,1141.71,-85.7475,330.345,1229.56,-81.1939,225.239,1223.01,110.606,490.812,887.257,147.179,454.806,693.081,155.94,453.959,489.527,155.444,405.347,261.662,95.8259,355.539,200.578,305.096,394.277,233.519,19.1096,108.69,861.228,-16.5613,145.238,674.818,-91.8457,152.52,475.618,-162.619,201.368,244.516,-231.131,253.262,240.422,-29.1127,209.182,190.416
177,0,120.4,420.033,1167.05,117.204,148.21,1141.87,-84.5146,332.169,1229.14,-80.3565,227.032,1222.7,109.943,491.054,886.112,144.682,454.317,691.814,157.096,453.078,488.015,162.926,403.403,260.203,104.329,353.633,198.549,313.24,392.434,234.677,18.0082,109.549,861.579,-19.1949,145.683,675.257,-96.0983,152.623,476.652,-168.734,201.147,245.984,-237.189,253.042,242.635,-35.9848,208.937,190.316
178,0,122.184,420.795,1166.68,117.992,148.994,1141.95,-83.2078,333.974,1228.48,-79.4207,228.813,1222.14,109.488,491.267,884.813,142.465,454.008,690.465,157.749,452.297,486.448,168.44,401.528,258.839,110.841,351.663,196.995,319.269,391.103,235.242,17.2399,110.393,861.764,-21.5392,146.13,675.52,-100.195,152.719,477.576,-174.867,200.888,247.407,-243.286,252.765,244.791,-42.8922,208.676,190.207
179,0,124.055,421.592,1166.17,118.909,149.81,1141.94,-81.84,335.747,1227.58,-78.3946,230.569,1221.35,109.281,491.447,883.399,140.569,453.88,689.057,157.939,451.631,484.822,171.979,399.784,257.482,115.321,349.712,195.833,323.201,390.277,235.074,16.8178,111.22,861.765,-23.5601,146.576,675.589,-104.111,152.806,478.38,-181.011,200.586,248.783,-249.423,252.417,246.895,-49.8239,208.4,190.088
180,0,125.997,422.424,1165.55,119.943,150.662,1141.83,-80.425,337.479,1226.47,-77.2877,232.288,1220.32,109.354,491.601,881.911,139.026,453.928,687.611,157.712,451.095,483.138,173.609,398.218,256.069,117.795,347.859,194.989,325.127,389.917,234.091,16.7538,112.029,861.568,-25.2197,147.019,675.446,-107.817,152.882,479.058,-187.155,200.237,250.118,-255.595,251.99,248.959,-56.7665,208.112,189.959
181,0,127.994,423.296,1164.82,121.078,151.552,1141.62,-78.9771,339.161,1225.16,-76.1111,233.963,1219.08,109.726,491.739,880.396,137.852,454.148,686.149,157.119,450.698,481.406,173.466,396.862,254.571,118.354,346.169,194.396,325.209,389.955,232.278,17.0574,112.819,861.159,-26.4768,147.454,675.077,-111.28,152.946,479.606,-193.282,199.844,251.423,-261.789,251.482,251.001,-63.7044,207.817,189.82
182,0,130.029,424.207,1164,122.299,152.483,1141.31,-77.511,340.785,1223.68,-74.8773,235.584,1217.64,110.403,491.88,878.895,137.047,454.531,684.691,156.213,450.444,479.637,171.744,395.731,252.99,117.15,344.69,194.001,323.666,390.305,229.689,17.7357,113.591,860.531,-27.2885,147.874,674.474,-114.463,152.995,480.023,-199.368,199.411,252.714,-267.983,250.898,253.052,-70.6206,207.52,189.671
183,0,132.085,425.16,1163.1,123.587,153.458,1140.89,-76.0414,342.345,1222.04,-73.5999,237.148,1216.01,111.378,492.049,877.449,136.6,455.068,683.253,155.049,450.335,477.849,168.68,394.825,251.354,114.378,343.457,193.76,320.759,390.873,226.445,18.7929,114.344,859.681,-27.6115,148.272,673.632,-117.325,153.025,480.316,-205.382,198.947,254.015,-274.145,250.252,255.147,-77.4976,207.229,189.516
184,0,134.144,426.156,1162.15,124.923,154.477,1140.39,-74.5828,343.84,1220.29,-72.2938,238.649,1214.24,112.623,492.272,876.091,136.487,455.746,681.851,153.676,450.37,476.062,164.533,394.129,249.711,110.273,342.483,193.64,316.766,391.565,222.721,20.2292,115.081,858.613,-27.4039,148.638,672.553,-119.826,153.033,480.493,-211.288,198.466,255.355,-280.233,249.567,257.33,-84.3185,206.953,189.355
185,0,136.187,427.193,1161.15,126.287,155.541,1139.79,-73.1493,345.267,1218.45,-70.9744,240.088,1212.34,114.099,492.577,874.844,136.671,456.549,680.497,152.139,450.539,474.297,159.565,393.622,248.121,105.086,341.767,193.614,311.965,392.299,218.726,22.0413,115.801,857.338,-26.6271,148.963,671.244,-121.923,153.014,480.567,-217.042,197.983,256.769,-286.191,248.873,259.652,-91.0681,206.703,189.192
186,0,138.197,428.271,1160.13,127.659,156.648,1139.11,-71.7542,346.631,1216.56,-69.6578,241.466,1210.34,115.75,492.991,873.725,137.106,457.462,679.2,150.474,450.834,472.574,154.021,393.276,246.642,99.0752,341.292,193.661,306.612,393.005,214.677,24.2211,116.505,855.874,-25.2482,149.233,669.718,-123.576,152.96,480.557,-222.596,197.516,258.294,-291.955,248.205,262.169,-97.734,206.488,189.029
187,0,140.155,429.389,1159.11,129.017,157.795,1138.36,-70.4098,347.934,1214.65,-68.3603,242.788,1208.28,117.511,493.536,872.736,137.739,458.467,677.966,148.712,451.238,470.914,148.119,393.059,245.327,92.4855,341.03,193.764,300.923,393.633,210.782,26.7566,117.194,854.246,-23.2417,149.439,667.996,-124.747,152.864,480.484,-227.897,197.085,259.971,-297.449,247.602,264.938,-104.307,206.32,188.87
188,0,142.045,430.543,1158.09,130.343,158.981,1137.56,-69.1273,349.184,1212.75,-67.0982,244.06,1206.19,119.308,494.227,871.872,138.512,459.543,676.797,146.872,451.735,469.332,142.036,392.942,244.212,85.5414,340.944,193.908,295.071,394.151,207.213,29.6308,117.868,852.486,-20.5916,149.567,666.105,-125.401,152.718,480.376,-232.891,196.705,261.84,-302.594,247.1,268.016,-110.781,206.207,188.717
189,0,143.851,431.729,1157.09,131.617,160.2,1136.71,-67.9167,350.391,1210.88,-65.8874,245.29,1204.09,121.063,495.073,871.118,139.362,460.671,675.694,144.965,452.304,467.842,135.906,392.898,243.315,78.4353,340.992,194.08,289.179,394.545,204.1,32.8229,118.525,850.631,-17.2928,149.607,664.077,-125.511,152.513,480.26,-237.522,196.391,263.941,-307.305,246.734,271.459,-117.153,206.158,188.575
190,0,145.557,432.945,1156.12,132.822,161.447,1135.83,-66.7868,351.563,1209.09,-64.7432,246.489,1202.03,122.701,496.07,870.453,140.229,461.831,674.653,142.994,452.923,466.451,129.822,392.904,242.635,71.3223,341.132,194.267,283.321,394.814,201.515,36.3076,119.165,848.725,-13.3522,149.551,661.95,-125.055,152.24,480.17,-241.736,196.153,266.309,-311.496,246.531,275.317,-123.421,206.178,188.453
191,0,147.15,434.184,1155.19,133.942,162.716,1134.94,-65.7452,352.714,1207.38,-63.68,247.667,1200.03,124.151,497.207,869.85,141.053,463.003,673.67,140.956,453.571,465.165,123.84,392.941,242.156,64.318,341.324,194.458,277.534,394.968,199.482,40.056,119.785,846.81,-8.78872,149.392,659.765,-124.02,151.892,480.136,-245.481,195.997,268.976,-315.09,246.512,279.63,-129.583,206.269,188.362
192,0,148.619,435.442,1154.31,134.962,164,1134.06,-64.798,353.855,1205.79,-62.7108,248.836,1198.11,125.35,498.464,869.282,141.778,464.168,672.737,138.841,454.226,463.982,117.987,392.991,241.846,57.4994,341.531,194.642,271.824,395.022,197.975,44.0358,120.384,844.933,-3.63377,149.129,657.568,-122.401,151.462,480.195,-248.711,195.921,271.966,-318.015,246.683,284.428,-135.634,206.429,188.318
193,0,149.952,436.714,1153.47,135.871,165.292,1133.2,-63.9502,354.998,1204.32,-61.8476,250.008,1196.3,126.251,499.813,868.722,142.354,465.308,671.848,136.639,454.866,462.901,112.268,393.044,241.667,50.9083,341.723,194.812,266.179,394.995,196.933,48.2116,120.957,843.137,2.07013,148.761,655.404,-120.203,150.949,480.377,-251.386,195.919,275.295,-320.212,247.042,289.726,-141.56,206.651,188.345
194,0,151.142,437.992,1152.69,136.659,166.585,1132.39,-63.206,356.153,1202.99,-61.1003,251.191,1194.62,126.819,501.221,868.148,142.737,466.41,670.996,134.335,455.475,461.915,106.674,393.09,241.578,44.5565,341.877,194.962,260.577,394.906,196.273,52.5454,121.502,841.464,8.27048,148.295,653.321,-117.439,150.352,480.713,-253.476,195.98,278.971,-321.638,247.575,295.52,-147.337,206.924,188.472
195,0,152.181,439.273,1151.96,137.319,167.871,1131.62,-62.5683,357.33,1201.81,-60.4773,252.396,1193.07,127.035,502.652,867.542,142.89,467.459,670.173,131.915,456.036,461.016,101.189,393.122,241.54,38.432,341.978,195.092,254.993,394.771,195.901,56.9969,122.017,839.951,14.9068,147.741,651.362,-114.132,149.676,481.232,-254.957,196.088,282.991,-322.272,248.258,301.791,-152.926,207.23,188.736
196,0,153.064,440.548,1151.28,137.845,169.143,1130.93,-62.0393,358.536,1200.78,-59.9848,253.629,1191.68,126.896,504.071,866.895,142.786,468.446,669.373,129.366,456.537,460.196,95.7943,393.135,241.52,32.5062,342.017,195.201,249.407,394.606,195.722,61.5243,122.499,838.628,21.9126,147.11,649.571,-110.31,148.929,481.954,-255.815,196.226,287.343,-322.108,249.058,308.496,-158.272,207.547,189.179
197,0,153.788,441.814,1150.66,138.237,170.392,1130.31,-61.6206,359.774,1199.89,-59.6274,254.894,1190.44,126.413,505.444,866.202,142.404,469.364,668.593,126.678,456.972,459.446,90.4683,393.127,241.493,26.7396,341.996,195.296,243.805,394.421,195.655,66.0847,122.946,837.521,29.2183,146.42,647.985,-106.011,148.125,482.897,-256.045,196.374,292.004,-321.164,249.938,315.572,-163.299,207.847,189.846
198,0,154.351,443.064,1150.08,138.492,171.613,1129.79,-61.3129,361.047,1199.16,-59.4071,256.193,1189.37,125.612,506.743,865.469,141.732,470.21,667.83,123.842,457.337,458.758,85.1917,393.095,241.445,21.0885,341.917,195.384,238.178,394.224,195.633,70.6353,123.355,836.646,36.753,145.69,646.637,-101.275,147.281,484.071,-255.651,196.513,296.938,-319.474,250.858,322.936,-167.913,208.1,190.784
199,0,154.751,444.293,1149.55,138.614,172.8,1129.37,-61.1168,362.352,1198.56,-59.3241,257.522,1188.46,124.525,507.945,864.703,140.764,470.981,667.083,120.852,457.631,458.126,79.9456,393.042,241.37,15.5092,341.79,195.474,232.524,394.02,195.607,75.1342,123.724,836.015,44.447,144.938,645.553,-96.1488,146.416,485.477,-254.643,196.628,302.099,-317.093,251.781,330.485,-172,208.274,192.033
200,0,154.991,445.496,1149.06,138.607,173.945,1129.07,-61.0321,363.683,1198.09,-59.3767,258.876,1187.71,123.192,509.033,863.921,139.502,471.68,666.354,117.705,457.859,457.544,74.7122,392.968,241.272,9.96199,341.629,195.578,226.846,393.813,195.546,79.5416,124.052,835.629,52.2339,144.186,644.753,-90.6804,145.552,487.108,-253.036,196.703,307.43,-314.083,252.671,338.1,-175.435,208.334,193.629
201,0,155.071,446.67,1148.61,138.475,175.046,1128.88,-61.0583,365.032,1197.74,-59.5611,260.248,1187.12,121.656,510,863.139,137.952,472.309,665.646,114.401,458.029,457.009,69.4747,392.877,241.16,4.41374,341.445,195.709,221.146,393.606,195.439,83.8216,124.337,835.486,60.0515,143.452,644.248,-84.9189,144.714,488.95,-250.85,196.729,312.862,-310.521,253.498,345.645,-178.082,208.251,195.592
202,0,154.994,447.81,1148.21,138.225,176.098,1128.81,-61.1946,366.385,1197.51,-59.8717,261.626,1186.67,119.961,510.842,862.375,136.124,472.874,664.963,110.941,458.149,456.521,64.217,392.775,241.05,-1.16084,341.254,195.877,215.429,393.401,195.282,87.9428,124.574,835.579,67.8435,142.754,644.044,-78.9135,143.922,490.979,-248.109,196.701,318.316,-306.481,254.239,352.978,-179.806,207.995,197.926
203,0,154.766,448.912,1147.84,137.867,177.098,1128.86,-61.4397,367.731,1197.38,-60.3016,262.996,1186.37,118.145,511.563,861.649,134.034,473.38,664.311,107.329,458.23,456.078,58.9243,392.668,240.958,-6.77871,341.069,196.095,209.697,393.199,195.084,91.8799,124.762,835.893,75.5593,142.107,644.141,-72.7117,143.198,493.162,-244.836,196.614,323.703,-302.042,254.879,359.95,-180.48,207.545,200.616
204,0,154.389,449.974,1147.5,137.407,178.044,1129.04,-61.7917,369.051,1197.33,-60.8422,264.343,1186.21,116.242,512.171,860.976,131.696,473.834,663.696,103.571,458.284,455.684,53.5838,392.561,240.904,-12.449,340.902,196.373,203.951,393.004,194.855,95.6147,124.897,836.415,83.1545,141.521,644.528,-66.3588,142.557,495.461,-241.055,196.472,328.926,-297.272,255.409,366.411,-179.99,206.889,203.626
205,0,153.869,450.992,1147.21,136.858,178.934,1129.34,-62.2485,370.329,1197.37,-61.4842,265.648,1186.17,114.278,512.677,860.37,129.13,474.242,663.125,99.6726,458.322,455.339,48.1854,392.462,240.903,-18.174,340.76,196.717,198.19,392.816,194.61,99.1364,124.975,837.128,90.5902,141.006,645.195,-59.8964,142.013,497.83,-236.789,196.276,333.885,-292.233,255.826,372.221,-178.245,206.02,206.898
206,0,153.212,451.964,1146.95,136.227,179.769,1129.76,-62.8073,371.546,1197.48,-62.2173,266.895,1186.25,112.272,513.093,859.842,126.352,474.61,662.605,95.641,458.354,455.048,42.7222,392.375,240.968,-23.9505,340.652,197.134,192.41,392.639,194.361,102.441,124.993,838.014,97.8328,140.564,646.123,-53.3624,141.571,500.218,-232.058,196.032,338.475,-286.973,256.132,377.247,-175.183,204.944,210.356
207,0,152.423,452.887,1146.73,135.525,180.548,1130.3,-63.4645,372.686,1197.65,-63.0307,268.065,1186.44,110.232,513.432,859.398,123.382,474.941,662.141,91.4839,458.388,454.813,37.1915,392.307,241.11,-29.7715,340.581,197.627,186.607,392.475,194.116,105.534,124.949,839.059,104.853,140.196,647.291,-46.7904,141.233,502.574,-226.88,195.744,342.592,-281.523,256.331,381.373,-170.773,203.678,213.907
208,0,151.51,453.76,1146.56,134.761,181.271,1130.96,-64.2163,373.731,1197.88,-63.9134,269.142,1186.74,108.16,513.703,859.041,120.236,475.24,661.74,87.2091,458.429,454.639,31.5946,392.259,241.333,-35.6278,340.548,198.198,180.777,392.327,193.882,108.423,124.841,840.246,111.624,139.901,648.675,-40.209,140.993,504.842,-221.267,195.419,346.135,-275.901,256.426,384.502,-165.018,202.244,217.449
209,0,150.48,454.579,1146.42,133.945,181.939,1131.72,-65.0577,374.667,1198.16,-64.8546,270.111,1187.13,106.049,513.917,858.771,116.93,475.508,661.404,82.8242,458.481,454.527,25.9369,392.233,241.637,-41.5091,340.551,198.845,174.914,392.194,193.661,111.123,124.671,841.562,118.122,139.675,650.25,-33.6424,140.84,506.971,-215.232,195.058,349.013,-270.109,256.422,386.559,-157.951,200.675,220.875
210,0,149.339,455.343,1146.33,133.086,182.555,1132.58,-65.9834,375.48,1198.49,-65.8438,270.958,1187.61,103.887,514.08,858.585,113.478,475.745,661.138,78.3366,458.544,454.48,20.227,392.231,242.017,-47.4056,340.589,199.566,169.016,392.079,193.453,113.653,124.442,842.996,124.327,139.51,651.989,-27.1102,140.76,508.911,-208.779,194.664,351.145,-264.133,256.32,387.494,-149.632,199.006,224.08
211,0,148.096,456.05,1146.27,132.19,183.119,1133.54,-66.9873,376.162,1198.87,-66.871,271.671,1188.18,101.659,514.196,858.477,109.893,475.95,660.943,73.753,458.618,454.498,14.4761,392.25,242.465,-53.3083,340.655,200.355,163.078,391.981,193.256,116.032,124.159,844.538,130.218,139.402,653.867,-20.6273,140.732,510.616,-201.913,194.237,352.465,-257.949,256.12,387.279,-140.146,197.274,226.968
212,0,146.758,456.698,1146.27,131.267,183.631,1134.59,-68.0627,376.704,1199.3,-67.9272,272.244,1188.84,99.3454,514.266,858.443,106.184,476.121,660.819,69.0796,458.696,454.583,8.69639,392.287,242.971,-59.2101,340.744,201.207,157.102,391.899,193.066,118.278,123.831,846.178,135.776,139.342,655.857,-14.2045,140.738,512.05,-194.634,193.774,352.925,-251.522,255.817,385.912,-129.592,195.518,229.455
213,0,145.335,457.284,1146.3,130.321,184.094,1135.72,-69.2023,377.103,1199.78,-69.0042,272.67,1189.57,96.9295,514.288,858.473,102.361,476.254,660.766,64.3216,458.774,454.733,2.89985,392.338,243.521,-65.1062,340.848,202.112,151.086,391.83,192.882,120.41,123.467,847.907,140.985,139.326,657.934,-7.84904,140.754,513.181,-186.937,193.27,352.496,-244.81,255.409,383.413,-118.081,193.768,231.479
214,0,143.834,457.807,1146.37,129.358,184.508,1136.93,-70.3983,377.358,1200.31,-70.0948,272.949,1190.38,94.3947,514.26,858.56,98.4297,476.345,660.78,59.4835,458.844,454.945,-2.90324,392.398,244.105,-70.9938,340.96,203.062,145.033,391.774,192.7,122.443,123.077,849.718,145.829,139.347,660.072,-1.56419,140.763,513.988,-178.819,192.719,351.171,-237.768,254.886,379.82,-105.725,192.053,232.998
215,0,142.265,458.264,1146.49,128.383,184.874,1138.2,-71.6427,377.471,1200.89,-71.1931,273.081,1191.27,91.7279,514.178,858.698,94.3962,476.39,660.859,54.569,458.898,455.218,-8.70546,392.461,244.71,-76.8727,341.073,204.049,138.945,391.725,192.519,124.387,122.674,851.599,150.295,139.404,662.25,4.64968,140.746,514.46,-170.273,192.113,348.964,-230.35,254.245,375.193,-92.6377,190.39,233.994
216,0,140.638,458.654,1146.63,127.4,185.191,1139.53,-72.9269,377.448,1201.52,-72.294,273.071,1192.23,88.9203,514.037,858.879,90.2643,476.384,660.998,49.5812,458.929,455.548,-14.503,392.52,245.329,-82.7445,341.179,205.062,132.825,391.68,192.339,126.25,122.269,853.539,154.372,139.496,664.446,10.795,140.691,514.595,-161.29,191.444,345.913,-222.51,253.477,369.605,-78.9252,188.792,234.473
217,0,138.963,458.974,1146.8,126.412,185.458,1140.91,-74.2426,377.295,1202.21,-73.3935,272.926,1193.26,85.9684,513.833,859.096,86.037,476.323,661.194,44.5223,458.928,455.931,-20.2963,392.57,245.956,-88.6132,341.274,206.094,126.677,391.636,192.161,128.032,121.871,855.527,158.054,139.622,666.64,16.8767,140.587,514.4,-151.865,190.702,342.072,-214.21,252.578,363.143,-64.6855,187.264,234.467
218,0,137.25,459.223,1147,125.422,185.675,1142.33,-75.5811,377.022,1202.95,-74.4885,272.654,1194.35,82.8736,513.56,859.343,81.717,476.203,661.441,39.3945,458.888,456.362,-26.0893,392.606,246.586,-94.4844,341.352,207.138,120.505,391.589,191.987,129.732,121.489,857.548,161.335,139.785,668.814,22.9014,140.431,513.891,-141.991,189.881,337.517,-205.416,251.546,355.904,-50.0068,185.806,234.025
219,0,135.509,459.399,1147.22,124.431,185.841,1143.78,-76.9339,376.639,1203.75,-75.5765,272.267,1195.51,79.6428,513.216,859.616,77.3061,476.02,661.733,34.1996,458.806,456.836,-31.8897,392.623,247.221,-100.365,341.41,208.187,114.311,391.534,191.819,131.343,121.129,859.586,164.215,139.989,670.952,28.8775,140.224,513.094,-131.665,188.974,332.337,-196.104,250.381,347.991,-34.9664,184.413,233.217
220,0,133.751,459.5,1147.44,123.443,185.954,1145.25,-78.2926,376.159,1204.6,-76.6555,271.776,1196.72,76.2873,512.797,859.91,72.8064,475.774,662.067,28.9393,458.676,457.35,-37.7071,392.618,247.861,-106.263,341.447,209.238,108.098,391.468,191.658,132.853,120.795,861.624,166.698,140.24,673.039,34.8143,139.971,512.039,-120.886,187.979,326.635,-186.257,249.084,339.518,-19.6318,183.085,232.124
221,0,131.987,459.527,1147.67,122.459,186.011,1146.74,-79.649,375.593,1205.51,-77.7239,271.194,1197.98,72.8223,512.303,860.221,68.2198,475.464,662.437,23.6155,458.497,457.897,-43.5522,392.588,248.51,-112.186,341.462,210.288,101.868,391.389,191.506,134.248,120.486,863.645,168.791,140.541,675.062,40.7217,139.682,510.763,-109.657,186.895,320.524,-175.87,247.66,330.597,-4.06118,181.824,230.838
222,0,130.227,459.477,1147.89,121.482,186.012,1148.23,-80.9952,374.953,1206.46,-78.7798,270.535,1199.29,69.2655,511.733,860.545,63.5484,475.09,662.839,18.2301,458.269,458.475,-49.4355,392.531,249.172,-118.143,341.457,211.337,95.6215,391.294,191.362,135.511,120.203,865.631,170.505,140.899,677.01,46.6091,139.368,509.308,-97.9845,185.728,314.121,-164.949,246.119,321.347,11.6944,180.637,229.454
223,0,128.483,459.352,1148.1,120.514,185.954,1149.71,-82.3236,374.25,1207.45,-79.8213,269.809,1200.64,65.6366,511.089,860.88,58.7942,474.653,663.269,12.7851,457.995,459.079,-55.3654,392.447,249.85,-124.14,341.436,212.386,89.3589,391.183,191.227,136.623,119.941,867.566,171.855,141.317,678.874,52.4852,139.045,507.716,-85.8809,184.489,307.544,-153.508,244.471,311.886,27.5898,179.543,228.064
224,0,126.764,459.15,1148.3,119.56,185.835,1151.18,-83.6267,373.496,1208.47,-80.8462,269.03,1202.01,61.9558,510.373,861.223,53.9597,474.158,663.726,7.28281,457.677,459.708,-61.3479,392.338,250.548,-130.185,341.403,213.437,83.08,391.056,191.097,137.565,119.694,869.432,172.859,141.8,680.647,58.3571,138.727,506.03,-73.3643,183.194,300.911,-141.575,242.73,302.332,43.5835,178.568,226.756
225,0,125.081,458.874,1148.46,118.623,185.653,1152.62,-84.8974,372.698,1209.52,-81.8515,268.206,1203.41,58.243,509.589,861.572,49.0469,473.609,664.207,1.72507,457.323,460.358,-67.3851,392.204,251.265,-136.281,341.363,214.492,76.784,390.914,190.971,138.318,119.458,871.215,173.537,142.348,682.322,64.2286,138.431,504.294,-60.4598,181.865,294.332,-129.184,240.917,292.801,59.6361,177.748,225.605
226,0,123.445,458.525,1148.6,117.707,185.409,1154.02,-86.1288,371.864,1210.59,-82.8335,267.348,1204.8,54.5169,508.741,861.924,44.058,473.01,664.711,-3.88631,456.937,461.029,-73.4759,392.05,252.002,-142.431,341.324,215.555,70.4701,390.76,190.845,138.864,119.224,872.902,173.912,142.96,683.894,70.0998,138.173,502.546,-47.2009,180.53,287.909,-116.383,239.052,283.409,75.7082,177.125,224.67
227,0,121.863,458.105,1148.7,116.82,185.1,1155.38,-87.314,371.001,1211.66,-83.7877,266.462,1206.19,50.7948,507.836,862.28,38.9949,472.368,665.239,-9.54999,456.528,461.721,-79.6153,391.878,252.756,-148.633,341.292,216.628,64.1373,390.597,190.717,139.191,118.985,874.482,174.009,143.634,685.359,75.9658,137.968,500.824,-33.6306,179.223,281.734,-103.227,237.165,274.265,91.758,176.745,223.992
228,0,120.346,457.617,1148.75,115.967,184.729,1156.67,-88.4467,370.112,1212.73,-84.7086,265.553,1207.57,47.0913,506.88,862.636,33.8592,471.689,665.79,-15.2652,456.104,462.434,-85.7959,391.693,253.522,-154.884,341.273,217.715,57.785,390.428,190.583,139.289,118.736,875.945,173.852,144.362,686.713,81.8147,137.827,499.157,-19.8038,177.983,275.884,-89.7837,235.289,265.473,107.74,176.655,223.589
229,0,118.902,457.064,1148.76,115.155,184.294,1157.9,-89.5203,369.201,1213.78,-85.5901,264.625,1208.91,43.4191,505.88,862.995,28.6525,470.981,666.367,-21.0316,455.672,463.17,-92.0084,391.503,254.298,-161.18,341.273,218.818,51.4123,390.257,190.443,139.157,118.47,877.283,173.468,145.137,687.954,87.6275,137.764,497.571,-5.78894,176.85,270.421,-76.1318,233.462,257.132,123.602,176.894,223.455
230,0,117.539,456.45,1148.72,114.394,183.799,1159.04,-90.5286,368.268,1214.81,-86.4251,263.679,1210.2,39.7881,504.844,863.354,23.3761,470.249,666.971,-26.8495,455.24,463.93,-98.2433,391.312,255.077,-167.512,341.296,219.939,45.0185,390.087,190.294,138.798,118.183,878.492,172.882,145.947,689.079,93.3762,137.788,496.085,8.32997,175.867,265.393,-62.3618,231.73,249.327,139.283,177.492,223.562
231,0,116.262,455.781,1148.63,113.692,183.245,1160.1,-91.4656,367.314,1215.79,-87.2058,262.716,1211.43,36.2058,503.781,863.715,18.032,469.502,667.605,-32.7195,454.815,464.716,-104.492,391.128,255.856,-173.872,341.345,221.078,38.6023,389.92,190.138,138.228,117.872,879.565,172.121,146.781,690.084,99.0235,137.905,494.708,22.4518,175.078,260.83,-48.578,230.141,242.137,154.709,178.468,223.86
232,0,115.078,455.06,1148.49,113.059,182.636,1161.05,-92.3255,366.336,1216.72,-87.9242,261.733,1212.58,32.6775,502.698,864.078,12.6228,468.745,668.269,-38.642,454.403,465.531,-110.746,390.958,256.635,-180.251,341.422,222.237,32.1621,389.76,189.976,137.468,117.535,880.5,171.21,147.622,690.966,104.522,138.123,493.446,36.4571,174.521,256.745,-34.8988,228.75,235.623,169.797,179.822,224.28
233,0,113.993,454.295,1148.3,112.503,181.974,1161.89,-93.1028,365.334,1217.59,-88.5716,260.729,1213.64,29.2068,501.606,864.444,7.15263,467.982,668.965,-44.617,454.006,466.376,-117.003,390.808,257.412,-186.638,341.526,223.417,25.6955,389.607,189.809,136.549,117.173,881.294,170.173,148.457,691.721,109.817,138.443,492.296,50.208,174.233,253.138,-21.4571,227.609,229.832,184.444,181.537,224.737
234,0,113.009,453.489,1148.06,112.036,181.266,1162.61,-93.7926,364.303,1218.39,-89.1398,259.7,1214.6,25.7954,500.512,864.812,1.62803,467.218,669.692,-50.6432,453.628,467.251,-123.26,390.683,258.191,-193.025,341.656,224.617,19.1993,389.462,189.642,135.511,116.79,881.943,169.031,149.27,692.346,114.842,138.867,491.249,63.5493,174.241,249.992,-8.4002,226.774,224.79,198.535,183.577,225.143
235,0,112.131,452.649,1147.77,111.667,180.515,1163.21,-94.3902,363.242,1219.1,-89.6205,258.641,1215.44,22.4443,499.425,865.182,-3.94135,466.456,670.449,-56.7173,453.269,468.158,-129.519,390.587,258.976,-199.406,341.806,225.837,12.6696,389.325,189.475,134.398,116.388,882.445,167.806,150.047,692.834,119.527,139.394,490.29,76.3109,174.567,247.279,4.11238,226.292,220.504,211.938,185.894,225.404
236,0,111.359,451.78,1147.44,111.403,179.726,1163.67,-94.892,362.146,1219.71,-90.0063,257.55,1216.15,19.154,498.353,865.552,-9.54174,465.696,671.232,-62.8332,452.927,469.093,-135.783,390.521,259.773,-205.774,341.972,227.076,6.10188,389.197,189.313,133.262,115.976,882.796,166.515,150.773,693.181,123.797,140.019,489.4,88.3122,175.218,244.96,15.9117,226.203,216.96,224.509,188.423,225.437
237,0,110.694,450.889,1147.06,111.254,178.906,1164,-95.295,361.014,1220.22,-90.2906,256.421,1216.73,15.9257,497.302,865.92,-15.1543,464.94,672.034,-68.981,452.598,470.052,-142.057,390.486,260.59,-212.128,342.143,228.333,-0.508212,389.076,189.157,132.156,115.56,882.994,165.176,151.437,693.382,127.578,140.738,488.554,99.3681,176.193,242.986,26.8244,226.536,214.121,236.093,191.092,225.17
238,0,110.135,449.981,1146.65,111.226,178.059,1164.19,-95.5974,359.842,1220.63,-90.4677,255.251,1217.16,12.7615,496.277,866.28,-20.7544,464.185,672.847,-75.1466,452.279,471.031,-148.345,390.477,261.431,-218.467,342.312,229.606,-7.16456,388.964,189.009,131.129,115.15,883.034,163.8,152.03,693.431,130.798,141.54,487.727,109.296,177.478,241.304,36.6784,227.303,211.93,246.537,193.826,224.552
239,0,109.681,449.06,1146.2,111.324,177.19,1164.23,-95.7983,358.629,1220.92,-90.5339,254.037,1217.45,9.66563,495.284,866.628,-26.3107,463.432,673.658,-81.3106,451.961,472.02,-154.652,390.489,262.304,-224.794,342.467,230.891,-13.8699,388.859,188.869,130.229,114.758,882.912,162.398,152.545,693.325,133.394,142.416,486.894,117.927,179.045,239.859,45.3109,228.497,210.314,255.686,196.547,223.557
240,0,109.328,448.131,1145.73,111.552,176.304,1164.13,-95.8983,357.375,1221.09,-90.4867,252.778,1217.58,6.64552,494.325,866.954,-31.7852,462.677,674.452,-87.4481,451.639,473.01,-160.98,390.516,263.212,-231.114,342.596,232.188,-20.6251,388.764,188.739,129.497,114.392,882.626,160.978,152.977,693.061,135.314,143.353,486.029,125.11,180.857,238.593,52.5766,230.091,209.186,263.405,199.184,222.184
241,0,109.072,447.197,1145.23,111.911,175.407,1163.9,-95.8995,356.078,1221.14,-90.3257,251.471,1217.56,3.71221,493.401,867.25,-37.1324,461.919,675.211,-93.5281,451.306,473.989,-167.329,390.546,264.158,-237.432,342.688,233.492,-27.4291,388.678,188.617,128.96,114.064,882.174,159.544,153.325,692.637,136.521,144.336,485.109,130.729,182.864,237.454,58.3563,232.037,208.451,269.576,201.674,220.462
242,0,108.908,446.263,1144.7,112.401,174.502,1163.53,-95.8052,354.74,1221.07,-90.0524,250.118,1217.4,0.881294,492.512,867.504,-42.3003,461.156,675.917,-99.5139,450.954,474.942,-173.696,390.569,265.14,-243.756,342.732,234.802,-34.2779,388.602,188.504,128.635,113.782,881.557,158.099,153.59,692.054,137,145.349,484.116,134.703,185.009,236.394,62.5648,234.267,208.008,274.119,203.965,218.442
243,0,108.828,445.33,1144.17,113.018,173.592,1163.03,-95.6205,353.362,1220.89,-89.6704,248.719,1217.1,-1.82656,491.657,867.703,-47.2303,460.39,676.546,-105.363,450.579,475.854,-180.073,390.574,266.158,-250.091,342.718,236.119,-41.1651,388.535,188.398,128.52,113.553,880.778,156.64,153.773,691.317,136.755,146.375,483.036,137,187.229,235.374,65.1579,236.696,207.763,276.99,206.018,216.198
244,0,108.825,444.399,1143.62,113.756,172.681,1162.42,-95.3517,351.948,1220.59,-89.1853,247.276,1216.66,-4.38532,490.832,867.835,-51.8585,459.622,677.077,-111.028,450.178,476.712,-186.451,390.547,267.209,-256.443,342.638,237.445,-48.0817,388.476,188.301,128.601,113.378,879.844,155.167,153.88,690.431,135.811,147.396,481.863,137.636,189.456,234.365,66.1372,239.228,207.628,278.195,207.808,213.815
245,0,108.892,443.473,1143.07,114.608,171.769,1161.69,-95.0069,350.499,1220.18,-88.6049,245.794,1216.11,-6.76361,490.035,867.886,-56.1172,458.857,677.486,-116.456,449.748,477.499,-192.813,390.479,268.29,-262.811,342.488,238.789,-55.0163,388.422,188.211,128.842,113.257,878.765,153.673,153.916,689.406,134.215,148.395,480.595,136.678,191.626,233.347,65.5514,241.762,207.527,277.785,209.323,211.387
246,0,109.017,442.55,1142.53,115.563,170.86,1160.88,-94.5954,349.021,1219.67,-87.9387,244.276,1215.45,-8.92505,489.261,867.843,-59.9359,458.101,677.752,-121.594,449.292,478.204,-199.14,390.363,269.399,-269.192,342.265,240.164,-61.9555,388.369,188.128,129.197,113.183,877.556,152.154,153.887,688.256,132.032,149.355,479.24,134.24,193.676,232.31,63.4954,244.197,207.403,275.863,210.567,209.005
247,0,109.193,441.631,1141.99,116.608,169.952,1159.98,-94.1278,347.518,1219.07,-87.1981,242.727,1214.71,-10.829,488.509,867.697,-63.2443,457.365,677.855,-126.384,448.815,478.815,-205.409,390.193,270.538,-275.573,341.973,241.589,-68.8852,388.311,188.053,129.602,113.144,876.234,150.602,153.798,686.996,129.341,150.261,477.81,130.48,195.552,231.256,60.1054,246.443,207.214,272.574,211.552,206.751
248,0,109.408,440.714,1141.46,117.729,169.047,1159.02,-93.6155,345.995,1218.38,-86.3961,241.153,1213.89,-12.4315,487.776,867.437,-65.9732,456.662,677.78,-130.769,448.325,479.325,-211.589,389.971,271.712,-281.935,341.62,243.094,-75.7906,388.241,187.982,129.987,113.122,874.82,149.009,153.657,685.646,126.231,151.098,476.324,125.583,197.21,230.193,55.5509,248.424,206.938,268.096,212.299,204.693
249,0,109.652,439.797,1140.95,118.909,168.144,1158,-93.071,344.457,1217.63,-85.5468,239.561,1213.02,-13.6874,487.06,867.057,-68.0578,456.008,677.513,-134.694,447.835,479.73,-217.648,389.701,272.931,-288.249,341.217,244.716,-82.6581,388.152,187.914,130.276,113.096,873.338,147.369,153.468,684.226,122.793,151.854,474.805,119.76,198.621,229.139,50.0249,250.083,206.572,262.634,212.837,202.88
250,0,109.915,438.88,1140.47,120.129,167.24,1156.96,-92.5073,342.911,1216.82,-84.6654,237.956,1212.12,-14.5511,486.363,866.557,-69.4392,455.421,677.048,-138.105,447.36,480.031,-223.546,389.395,274.212,-294.477,340.783,246.5,-89.4759,388.034,187.842,130.396,113.041,871.813,145.671,153.235,682.759,119.117,152.521,473.277,113.225,199.768,228.114,43.7318,251.388,206.124,256.401,213.198,201.341
251,0,110.187,437.959,1140.02,121.37,166.335,1155.89,-91.9378,341.361,1215.97,-83.7678,236.346,1211.21,-14.9797,485.687,865.937,-70.0667,454.921,676.383,-140.954,446.916,480.236,-229.238,389.068,275.577,-300.569,340.339,248.5,-96.235,387.879,187.76,130.279,112.931,870.269,143.906,152.962,681.269,115.285,153.09,471.769,106.191,200.647,227.141,36.876,252.33,205.617,249.609,213.414,200.083
252,0,110.456,437.033,1139.61,122.613,165.427,1154.83,-91.3757,339.813,1215.1,-82.8703,234.736,1210.3,-14.9345,485.038,865.203,-69.8997,454.529,675.523,-143.198,446.524,480.355,-234.675,388.743,277.052,-306.468,339.909,250.778,-102.931,387.678,187.66,129.871,112.741,868.733,142.066,152.651,679.78,111.365,153.558,470.305,98.8517,201.269,226.242,29.6501,252.923,205.079,242.455,213.518,199.096
253,0,110.713,436.098,1139.24,123.836,164.513,1153.77,-90.8344,338.272,1214.2,-81.9894,233.134,1209.41,-14.3835,484.421,864.368,-68.9089,454.267,674.479,-144.8,446.205,480.406,-239.801,388.443,278.671,-312.109,339.521,253.399,-109.561,387.424,187.533,129.135,112.45,867.227,140.138,152.303,678.313,107.412,153.922,468.907,91.3787,201.656,225.437,22.2262,253.199,204.544,235.112,213.541,198.356
254,0,110.949,435.154,1138.92,125.02,163.59,1152.75,-90.3265,336.744,1213.31,-81.141,231.545,1208.56,-13.3031,483.846,863.445,-67.0777,454.154,673.269,-145.731,445.978,480.411,-244.557,388.197,280.469,-317.419,339.204,256.432,-116.131,387.11,187.37,128.055,112.045,865.772,138.112,151.92,676.891,103.459,154.182,467.596,83.9108,201.839,224.741,14.7484,253.204,204.042,227.721,213.507,197.828
255,0,111.156,434.198,1138.65,126.145,162.658,1151.76,-89.8642,335.234,1212.43,-80.3407,229.975,1207.76,-11.6802,483.322,862.453,-64.4024,454.205,671.915,-145.971,445.863,480.396,-248.882,388.032,282.483,-322.325,338.982,259.943,-122.644,386.734,187.168,126.637,111.516,864.387,135.975,151.501,675.529,99.5261,154.342,466.385,76.5531,201.851,224.163,7.32929,252.994,203.6,220.392,213.44,197.471
256,0,111.326,433.229,1138.43,127.19,161.712,1150.81,-89.4585,333.746,1211.57,-79.6034,228.431,1207.03,-9.51349,482.859,861.414,-60.8928,454.436,670.445,-145.507,445.878,480.39,-252.714,387.974,284.75,-326.75,338.879,263.993,-129.109,386.294,186.926,124.907,110.867,863.086,133.713,151.047,674.242,95.6136,154.404,465.283,69.3767,201.731,223.707,0.0485579,252.626,203.239,213.198,213.357,197.243
257,0,111.451,432.246,1138.26,128.14,160.752,1149.92,-89.1197,332.284,1210.74,-78.9426,226.916,1206.36,-6.81403,482.469,860.353,-56.5717,454.854,668.892,-144.336,446.037,480.424,-255.994,388.046,287.305,-330.621,338.912,268.635,-135.529,385.795,186.656,122.91,110.106,861.88,131.312,150.557,673.04,91.7103,154.376,464.293,62.4205,201.514,223.366,-7.0454,252.156,202.971,206.18,213.27,197.104
258,0,111.526,431.249,1138.16,128.977,159.776,1149.09,-88.8567,330.852,1209.95,-78.3709,225.437,1205.76,-3.60558,482.159,859.294,-51.4739,455.461,667.291,-142.462,446.349,480.533,-258.668,388.264,290.18,-333.872,339.092,273.907,-141.903,385.244,186.378,120.703,109.252,860.776,128.757,150.03,671.93,87.7945,154.263,463.414,55.6965,201.234,223.132,-13.9319,251.634,202.8,199.355,213.187,197.017
259,0,111.545,430.239,1138.11,129.688,158.783,1148.32,-88.6769,329.455,1209.21,-77.8992,223.997,1205.24,0.075849,481.938,858.263,-45.6455,456.254,665.677,-139.901,446.82,480.746,-260.693,388.639,293.402,-336.446,339.421,279.83,-148.223,384.657,186.127,118.349,108.328,859.778,126.036,149.468,670.912,83.8391,154.076,462.638,49.1948,200.917,222.988,-20.6128,251.101,202.72,192.715,213.113,196.954
260,0,111.504,429.217,1138.12,130.259,157.772,1147.61,-88.5868,328.097,1208.51,-77.5369,222.601,1204.8,4.18309,481.81,857.285,-39.1426,457.223,664.09,-136.673,447.449,481.096,-262.039,389.172,296.993,-338.297,339.89,286.403,-154.462,384.057,185.954,115.91,107.359,858.882,123.135,148.871,669.985,79.8147,153.822,461.956,42.8899,200.586,222.915,-27.1069,250.586,202.722,186.241,213.048,196.891
261,0,111.4,428.185,1138.18,130.683,156.742,1146.96,-88.591,326.78,1207.87,-77.2919,221.254,1204.42,8.65944,481.777,856.383,-32.0292,458.351,662.567,-132.809,448.231,481.61,-262.692,389.857,300.968,-339.394,340.482,293.604,-160.582,383.475,185.92,113.44,106.372,858.086,120.044,148.24,669.142,75.6934,153.513,461.354,36.7468,200.258,222.892,-33.4437,250.11,202.79,179.902,212.992,196.813
262,0,111.229,427.146,1138.29,130.95,155.696,1146.36,-88.693,325.508,1207.29,-77.17,219.959,1204.12,13.4408,481.839,855.58,-24.3761,459.615,661.142,-128.345,449.155,482.31,-262.655,390.68,305.335,-339.723,341.173,301.382,-166.519,382.951,186.101,110.977,105.391,857.378,116.757,147.579,668.376,71.4516,153.16,460.819,30.7262,199.943,222.897,-39.6583,249.683,202.905,173.667,212.942,196.71
263,0,110.991,426.103,1138.46,131.056,154.634,1145.82,-88.8947,324.285,1206.76,-77.1755,218.721,1203.87,18.4578,481.99,854.893,-16.2588,460.987,659.851,-123.324,450.206,483.215,-261.952,391.621,310.094,-339.285,341.93,309.663,-172.192,382.536,186.579,108.541,104.438,856.747,113.27,146.892,667.676,67.071,152.773,460.336,24.7887,199.646,222.912,-45.7866,249.308,203.047,167.502,212.894,196.578
264,0,110.683,425.06,1138.67,130.999,153.558,1145.32,-89.1968,323.114,1206.29,-77.3107,217.542,1203.67,23.639,482.222,854.338,-7.756,462.436,658.724,-117.793,451.363,484.336,-260.621,392.657,315.231,-338.096,342.717,318.347,-177.497,382.285,187.435,106.133,103.528,856.179,109.583,146.183,667.03,62.5403,152.363,459.894,18.8983,199.373,222.92,-51.8616,248.985,203.201,161.378,212.844,196.417
265,0,110.304,424.021,1138.92,130.779,152.471,1144.86,-89.5986,321.998,1205.87,-77.5763,216.427,1203.52,28.9124,482.525,853.927,1.05225,463.927,657.788,-111.806,452.603,485.677,-258.711,393.759,320.723,-336.189,343.496,327.309,-182.311,382.26,188.743,103.735,102.671,855.656,105.702,145.461,666.428,57.8547,151.942,459.48,13.0244,199.124,222.908,-57.9112,248.707,203.35,155.274,212.79,196.229
266,0,109.855,422.992,1139.21,130.396,151.378,1144.43,-90.0983,320.938,1205.5,-77.971,215.378,1203.4,34.209,482.886,853.67,10.0859,465.425,657.067,-105.419,453.9,487.234,-256.279,394.9,326.528,-333.608,344.23,336.406,-186.498,382.522,190.56,101.314,101.868,855.164,101.636,144.731,665.86,53.0155,151.519,459.087,7.14271,198.9,222.869,-63.957,248.469,203.484,149.17,212.729,196.021
267,0,109.336,421.978,1139.54,129.857,150.283,1144.02,-90.693,319.939,1205.18,-78.4921,214.399,1203.31,39.4641,483.29,853.573,19.2662,466.894,656.578,-98.6886,455.228,488.997,-253.38,396.056,332.586,-330.406,344.888,345.478,-189.915,383.127,192.917,98.8272,101.12,854.687,97.3989,144.003,665.317,48.0295,151.104,458.709,1.23531,198.702,222.801,-70.0138,248.266,203.596,143.055,212.661,195.798
268,0,108.747,420.984,1139.91,129.166,149.19,1143.64,-91.3788,319.001,1204.91,-79.1351,213.491,1203.24,44.6193,483.723,853.638,28.517,468.303,656.338,-91.6734,456.56,490.947,-250.065,397.203,338.818,-326.643,345.447,354.354,-192.417,384.119,195.816,96.2294,100.422,854.214,93.007,143.286,664.792,42.9075,150.705,458.345,-4.70945,198.53,222.705,-76.09,248.094,203.686,136.921,212.585,195.565
269,0,108.09,420.017,1140.3,128.333,148.107,1143.26,-92.1509,318.126,1204.69,-79.8942,212.656,1203.19,49.6241,484.168,853.867,37.7656,469.62,656.354,-84.4311,457.869,493.055,-246.369,398.326,345.123,-322.381,345.894,362.858,-193.868,385.525,199.22,93.4789,99.7654,853.735,88.4803,142.59,664.281,37.6631,150.328,457.995,-10.698,198.386,222.587,-82.1892,247.952,203.756,130.765,212.501,195.33
270,0,107.365,419.081,1140.74,127.366,147.039,1142.88,-93.0037,317.315,1204.52,-80.7619,211.895,1203.15,54.4364,484.612,854.258,46.9432,470.82,656.633,-77.0172,459.133,495.289,-242.315,399.412,351.381,-317.678,346.226,370.814,-194.146,387.347,203.055,90.5434,99.144,853.247,83.8405,141.923,663.782,32.3123,149.98,457.662,-16.7325,198.272,222.457,-88.3105,247.838,203.813,124.587,212.413,195.098
271,0,106.575,418.182,1141.2,126.275,145.994,1142.51,-93.9312,316.567,1204.4,-81.7298,211.208,1203.13,59.0231,485.041,854.807,55.9856,471.883,657.173,-69.484,460.329,497.607,-237.908,400.457,357.459,-312.592,346.456,378.051,-193.149,389.559,207.212,87.4045,98.5521,852.749,79.1105,141.296,663.297,26.8724,149.664,457.351,-22.8116,198.188,222.326,-94.4506,247.754,203.867,118.386,212.321,194.871
272,0,105.721,417.325,1141.7,125.074,144.978,1142.14,-94.9266,315.882,1204.33,-82.7883,210.594,1203.11,63.3601,485.444,855.508,64.8332,472.794,657.972,-61.8795,461.441,499.964,-233.139,401.461,363.208,-307.171,346.606,384.41,-190.801,392.109,211.552,84.0603,97.9869,852.246,74.3133,140.716,662.828,21.3612,149.383,457.068,-28.9317,198.135,222.207,-100.605,247.7,203.93,112.165,212.228,194.653
273,0,104.805,416.516,1142.23,123.774,144,1141.77,-95.9826,315.259,1204.32,-83.9267,210.05,1203.11,67.4319,485.811,856.357,73.4312,473.542,659.019,-54.2464,462.454,502.311,-227.984,402.428,368.475,-301.452,346.707,389.747,-187.051,394.915,215.918,80.5253,97.4492,851.746,69.4716,140.189,662.38,15.7966,149.138,456.82,-35.0875,198.112,222.111,-106.768,247.677,204.014,105.926,212.134,194.445
274,0,103.831,415.758,1142.81,122.388,143.068,1141.4,-97.0919,314.694,1204.37,-85.1338,209.576,1203.13,71.2305,486.135,857.345,81.729,474.123,660.301,-46.6215,463.359,504.596,-222.413,403.367,373.111,-295.463,346.799,393.935,-181.875,397.876,220.143,76.829,96.9441,851.256,64.6068,139.723,661.96,10.1964,148.93,456.614,-41.2725,198.115,222.052,-112.935,247.684,204.134,99.6703,212.041,194.246
275,0,102.8,415.057,1143.43,120.93,142.188,1141.02,-98.2465,314.186,1204.49,-86.3975,209.165,1203.17,74.7546,486.409,858.466,89.6802,474.536,661.802,-39.0352,464.15,506.767,-216.393,404.287,376.975,-289.217,346.923,396.868,-175.275,400.878,224.064,73.0119,96.4801,850.789,59.7379,139.321,661.574,4.57761,148.759,456.456,-47.4797,198.14,222.038,-119.102,247.716,204.304,93.4007,211.949,194.056
276,0,101.718,414.415,1144.09,119.414,141.369,1140.65,-99.4386,313.729,1204.68,-87.7055,208.814,1203.25,78.008,486.63,859.71,97.242,474.785,663.501,-31.5115,464.824,508.774,-209.891,405.2,379.94,-282.716,347.12,398.462,-167.275,403.805,227.536,69.1215,96.0684,850.354,54.8818,138.986,661.229,-1.04384,148.625,456.353,-53.7017,198.181,222.079,-125.266,247.77,204.536,87.1184,211.857,193.873
277,0,100.588,413.835,1144.81,117.853,140.617,1140.28,-100.66,313.321,1204.95,-89.045,208.518,1203.36,80.9984,486.794,861.069,104.375,474.876,665.372,-24.0678,465.383,510.568,-202.882,406.113,381.904,-275.947,347.428,398.658,-157.917,406.549,230.439,65.2073,95.7216,849.96,50.052,138.719,660.932,-6.65372,148.525,456.308,-59.9314,198.23,222.182,-131.427,247.837,204.841,80.8248,211.765,193.694
278,0,99.4137,413.321,1145.59,116.26,139.938,1139.92,-101.902,312.956,1205.31,-90.4034,208.27,1203.53,83.7352,486.901,862.535,111.042,474.819,667.392,-16.7155,465.831,512.108,-195.348,407.033,382.79,-268.881,347.875,397.417,-147.258,409.025,232.685,61.3161,95.4524,849.617,45.2586,138.522,660.69,-12.2399,148.458,456.326,-66.1621,198.28,222.352,-137.582,247.912,205.229,74.5207,211.672,193.517
279,0,98.202,412.872,1146.43,114.648,139.34,1139.58,-103.158,312.629,1205.75,-91.7679,208.064,1203.74,86.2286,486.951,864.098,117.208,474.624,669.529,-9.46036,466.175,513.356,-187.282,407.962,382.552,-261.478,348.481,394.726,-135.368,411.173,234.228,57.4878,95.2717,849.329,40.5081,138.393,660.508,-17.7927,148.424,456.408,-72.388,198.322,222.592,-143.732,247.985,205.709,68.207,211.576,193.34
280,0,96.9584,412.493,1147.33,113.032,138.827,1139.25,-104.418,312.335,1206.29,-93.1261,207.893,1204.03,88.4877,486.944,865.747,122.841,474.301,671.755,-2.30377,466.422,514.286,-178.681,408.899,381.172,-253.687,349.252,390.595,-122.326,412.969,235.058,53.7531,95.1879,849.103,35.8033,138.329,660.392,-23.3056,148.42,456.558,-78.6042,198.349,222.903,-149.878,248.049,206.286,61.8841,211.476,193.162
281,0,95.6897,412.182,1148.29,111.421,138.402,1138.94,-105.674,312.07,1206.93,-94.466,207.752,1204.38,90.5194,486.883,867.473,127.911,473.864,674.038,4.75661,466.581,514.877,-169.549,409.842,378.661,-245.442,350.186,385.058,-108.216,414.421,235.203,50.1319,95.206,848.94,31.1438,138.329,660.344,-28.7751,148.445,456.775,-84.8071,198.357,223.288,-156.021,248.097,206.964,55.5519,211.372,192.981
282,0,94.4036,411.94,1149.31,109.829,138.069,1138.66,-106.919,311.83,1207.67,-95.7761,207.634,1204.81,92.3274,486.773,869.263,132.388,473.323,676.346,11.7254,466.663,515.121,-159.891,410.784,375.06,-236.67,351.27,378.176,-93.1254,415.567,234.722,46.633,95.3272,848.842,26.5259,138.388,660.368,-34.2008,148.497,457.062,-90.9947,198.341,223.746,-162.162,248.126,207.746,49.2103,211.263,192.798
283,0,93.1081,411.768,1150.4,108.265,137.83,1138.4,-108.145,311.611,1208.5,-97.0457,207.536,1205.31,93.9111,486.62,871.103,136.248,472.689,678.646,18.6083,466.677,515.018,-149.709,411.719,370.432,-227.291,352.483,370.031,-77.1439,416.468,233.701,43.2553,95.5493,848.81,21.9439,138.503,660.466,-39.5854,148.575,457.417,-97.1664,198.301,224.277,-168.302,248.131,208.632,42.8582,211.151,192.613
284,0,91.8124,411.664,1151.54,106.741,137.686,1138.17,-109.342,311.412,1209.44,-98.2646,207.452,1205.9,95.2658,486.43,872.978,139.468,471.975,680.907,25.4103,466.633,514.58,-139,412.641,364.864,-217.221,353.798,360.736,-60.3575,417.196,232.243,39.9897,95.8666,848.843,17.3901,138.669,660.638,-44.9338,148.676,457.841,-103.323,198.237,224.88,-174.442,248.112,209.62,36.4944,211.035,192.428
285,0,90.5259,411.629,1152.73,105.266,137.637,1137.97,-110.504,311.23,1210.46,-99.4238,207.381,1206.56,96.3821,486.214,874.872,142.029,471.191,683.099,32.1347,466.539,513.828,-127.749,413.546,358.461,-206.379,355.187,350.428,-42.848,417.825,230.462,36.8212,96.2716,848.939,12.8563,138.881,660.885,-50.2527,148.797,458.333,-109.467,198.151,225.555,-180.582,248.07,210.708,30.1172,210.919,192.245
286,0,89.2587,411.662,1153.95,103.848,137.681,1137.81,-111.623,311.066,1211.56,-100.515,207.322,1207.3,97.2463,485.984,876.765,143.919,470.348,685.192,38.7816,466.403,512.792,-115.937,414.43,351.348,-194.687,356.62,339.269,-24.6906,418.416,228.476,33.7321,96.7552,849.095,8.33423,139.133,661.205,-55.5498,148.935,458.894,-115.601,198.047,226.299,-186.723,248.005,211.892,23.7244,210.803,192.064
287,0,88.0216,411.761,1155.2,102.497,137.817,1137.67,-112.691,310.923,1212.74,-101.532,207.275,1208.11,97.8416,485.754,878.635,145.13,469.458,687.158,45.3467,466.232,511.512,-103.532,415.29,343.665,-182.081,358.069,327.446,-5.95356,419.014,226.403,30.7043,97.3078,849.307,3.81697,139.421,661.596,-60.8327,149.086,459.522,-121.728,197.928,227.113,-192.865,247.92,213.168,17.3137,210.689,191.889
288,0,86.8253,411.925,1156.47,101.219,138.04,1137.57,-113.701,310.802,1213.97,-102.467,207.243,1208.98,98.1485,485.54,880.461,145.663,468.532,688.972,51.8205,466.032,510.031,-90.5005,416.124,335.565,-168.514,359.506,315.167,13.3017,419.636,224.353,27.7216,97.9199,849.572,-0.700684,139.739,662.057,-66.1083,149.245,460.216,-127.852,197.799,227.993,-199.007,247.814,214.531,10.8827,210.578,191.72
289,0,85.681,412.153,1157.73,100.022,138.347,1137.48,-114.645,310.71,1215.25,-103.317,207.23,1209.91,98.1469,485.361,882.218,145.528,467.584,690.611,58.1874,465.808,508.398,-76.8119,416.927,327.214,-153.963,360.905,302.653,33.0171,420.273,222.427,24.7718,98.5828,849.883,-5.22135,140.082,662.583,-71.382,149.405,460.973,-133.977,197.66,228.938,-205.15,247.688,215.975,4.42902,210.471,191.558
290,0,84.6,412.444,1158.97,98.9115,138.733,1137.42,-115.517,310.652,1216.55,-104.077,207.242,1210.87,97.8171,485.233,883.879,144.744,466.627,692.056,64.4261,465.562,506.664,-62.4447,417.689,318.787,-138.435,362.242,290.136,53.134,420.888,220.717,21.8479,99.2889,850.235,-9.74463,140.443,663.17,-76.6571,149.562,461.791,-140.104,197.516,229.943,-211.293,247.54,217.495,-2.04936,210.368,191.404
291,0,83.5934,412.796,1160.18,97.8935,139.194,1137.38,-116.311,310.637,1217.86,-104.744,207.285,1211.85,97.1423,485.175,885.419,143.338,465.674,693.292,70.5094,465.298,504.877,-47.3974,418.396,310.464,-121.976,363.492,277.848,73.5863,421.428,219.302,18.9485,100.031,850.618,-14.2668,140.818,663.812,-81.9344,149.707,462.666,-146.236,197.364,231.006,-217.435,247.367,219.086,-8.55422,210.268,191.256
292,0,82.672,413.208,1161.32,96.973,139.724,1137.34,-117.019,310.672,1219.15,-105.317,207.37,1212.85,96.1104,485.204,886.81,141.352,464.74,694.304,76.4045,465.017,503.085,-31.6982,419.029,302.424,-104.67,364.628,266.015,94.2934,421.825,218.25,16.0783,100.805,851.025,-18.7809,141.201,664.503,-87.2122,149.833,463.592,-152.373,197.205,232.122,-223.575,247.166,220.745,-15.0869,210.169,191.113
293,0,81.8464,413.679,1162.39,96.1543,140.316,1137.31,-117.636,310.768,1220.41,-105.794,207.504,1213.83,94.716,485.334,888.027,138.836,463.838,695.085,82.0748,464.72,501.327,-15.4139,419.564,294.836,-86.649,365.624,254.841,115.153,422.012,217.616,13.2474,101.604,851.447,-23.2767,141.587,665.235,-92.4862,149.934,464.565,-158.515,197.036,233.287,-229.712,246.931,222.467,-21.6482,210.07,190.974
294,0,81.1267,414.206,1163.36,95.4411,140.966,1137.28,-118.157,310.935,1221.6,-106.175,207.699,1214.78,92.9628,485.575,889.044,135.852,462.984,695.631,87.4803,464.408,499.638,1.34319,419.972,287.855,-68.0869,366.453,244.505,136.034,421.928,217.442,10.4704,102.424,851.873,-27.7408,141.973,665.998,-97.75,150.002,465.577,-164.66,196.851,234.494,-235.845,246.658,224.248,-28.2389,209.967,190.837
295,0,80.5221,414.79,1164.22,94.8362,141.667,1137.23,-118.577,311.181,1222.72,-106.462,207.964,1215.68,90.8651,485.933,889.839,132.471,462.19,695.94,92.5801,464.08,498.041,18.4112,420.222,281.61,-49.2032,367.086,235.151,156.773,421.532,217.753,7.76508,103.26,852.295,-32.1575,142.354,666.782,-102.995,150.033,466.62,-170.809,196.646,235.737,-241.974,246.339,226.084,-34.8591,209.855,190.7
296,0,80.041,415.427,1164.94,94.3418,142.414,1137.17,-118.892,311.517,1223.72,-106.654,208.308,1216.51,88.4494,486.409,890.394,128.772,461.469,696.017,97.3333,463.737,496.55,35.579,420.288,276.194,-30.2565,367.501,226.877,177.169,420.802,218.556,5.15129,104.108,852.702,-36.5085,142.728,667.576,-108.21,150.022,467.685,-176.958,196.414,237.011,-248.1,245.97,227.972,-41.5092,209.732,190.562
297,0,79.691,416.117,1165.51,93.9592,143.202,1137.08,-119.1,311.951,1224.61,-106.755,208.741,1217.26,85.7554,486.998,890.692,124.843,460.833,695.867,101.702,463.379,495.171,52.5907,420.148,271.657,-11.5374,367.676,219.736,196.99,419.747,219.834,2.64941,104.961,853.085,-40.7734,143.093,668.367,-113.385,149.965,468.761,-183.109,196.15,238.308,-254.223,245.547,229.905,-48.1892,209.592,190.422
298,0,79.4783,416.858,1165.93,93.6885,144.027,1136.97,-119.197,312.489,1225.35,-106.767,209.27,1217.89,82.8363,487.689,890.725,120.774,460.29,695.502,105.65,463.008,493.895,69.1547,419.788,268.004,6.64186,367.6,213.733,215.974,418.398,221.543,0.279182,105.815,853.435,-44.9299,143.448,669.14,-118.505,149.863,469.838,-189.259,195.848,239.622,-260.345,245.066,231.878,-54.8995,209.433,190.28
299,0,79.4081,417.646,1166.18,93.5292,144.882,1136.81,-119.183,313.137,1225.93,-106.692,209.901,1218.41,79.7586,488.466,890.488,116.66,459.849,694.936,109.151,462.625,492.708,84.9577,419.208,265.189,23.9596,367.269,208.827,233.842,416.811,223.607,-1.94121,106.664,853.742,-48.9538,143.795,669.878,-123.557,149.718,470.902,-195.411,195.503,240.946,-266.469,244.525,233.886,-61.6405,209.25,190.134
300,0,79.4842,418.481,1166.25,93.4793,145.765,1136.61,-119.058,313.898,1226.33,-106.534,210.638,1218.78,76.6007,489.307,889.986,112.594,459.515,694.186,112.183,462.233,491.589,99.6812,418.419,263.123,40.0993,366.693,204.937,250.314,415.058,225.914,-3.99578,107.501,853.997,-52.8185,144.136,670.564,-128.524,149.532,471.942,-201.567,195.109,242.274,-272.6,243.92,235.92,-68.4127,209.042,189.987
301,0,79.7087,419.358,1166.14,93.536,146.673,1136.36,-118.822,314.771,1226.55,-106.296,211.482,1218.99,73.451,490.189,889.228,108.666,459.291,693.272,114.734,461.838,490.509,113.021,417.444,261.676,54.7649,365.891,201.95,265.117,413.223,228.323,-5.87098,108.322,854.192,-56.4954,144.473,671.179,-133.389,149.313,472.945,-207.727,194.663,243.6,-278.742,243.252,237.974,-75.2163,208.806,189.839
302,0,80.0824,420.276,1165.87,93.6949,147.601,1136.05,-118.48,315.757,1226.58,-105.983,212.434,1219.04,70.4044,491.086,888.235,104.961,459.179,692.214,116.799,461.444,489.44,124.706,416.317,260.692,67.6955,364.895,199.731,278.014,411.389,230.663,-7.55549,109.122,854.316,-59.9526,144.812,671.702,-138.132,149.07,473.896,-213.896,194.166,244.919,-284.903,242.521,240.039,-82.0513,208.542,189.692
303,0,80.6043,421.231,1165.42,93.9505,148.548,1135.69,-118.033,316.849,1226.41,-105.6,213.489,1218.92,67.5588,491.973,887.031,101.555,459.179,691.038,118.386,461.059,488.352,134.519,415.083,260,78.6796,363.746,198.136,288.812,409.636,232.745,-9.03974,109.9,854.358,-63.1555,145.157,672.11,-142.731,148.814,474.783,-220.075,193.617,246.228,-291.086,241.729,242.111,-88.9169,208.251,189.547
304,0,81.2719,422.219,1164.82,94.2962,149.512,1135.26,-117.488,318.043,1226.06,-105.15,214.643,1218.63,65.01,492.828,885.652,98.5111,459.291,689.768,119.511,460.693,487.218,142.308,413.785,259.432,87.566,362.492,197.022,297.384,408.029,234.379,-10.3151,110.655,854.307,-66.0656,145.514,672.381,-147.161,148.556,475.592,-226.264,193.019,247.526,-297.297,240.88,244.185,-95.8109,207.936,189.405
