Trajectories
100
,,Subj:LASI,,,Subj:RASI,,,Subj:LPSI,,,Subj:RPSI,,,Subj:LTHI,,,Subj:LKNE,,,Subj:LTIB,,,Subj:LANK,,,Subj:LHEE,,,Subj:LTOE,,,Subj:RTHI,,,Subj:RKNE,,,Subj:RTIB,,,Subj:RANK,,,Subj:RHEE,,,Subj:RTOE,,,
Frame,Sub Frame,X,Y,Z,X,Y,Z,X,Y,Z,X,Y,Z,X,Y,Z,X,Y,Z,X,Y,Z,X,Y,Z,X,Y,Z,X,Y,Z,X,Y,Z,X,Y,Z,X,Y,Z,X,Y,Z,X,Y,Z,X,Y,Z
,,mm,mm,mm,mm,mm,mm,mm,mm,mm,mm,mm,mm,mm,mm,mm,mm,mm,mm,mm,mm,mm,mm,mm,mm,mm,mm,mm,mm,mm,mm,mm,mm,mm,mm,mm,mm,mm,mm,mm,mm,mm,mm,mm,mm,mm,mm,mm,mm
1,0,-90.7789,423.178,1145.47,-103.238,152.494,1134.99,-304.029,337.46,1204.13,-300.932,231.725,1199.12,-132.056,486.625,860.999,-110.92,452.376,665.732,-125.792,446.002,457.709,-157.623,386.21,235.961,-222.192,338.107,189.236,-3.76326,383.257,190.99,-129.661,96.3835,842.367,-131.195,114.844,649.113,-260.963,114.029,478.294,-413.761,155.529,296.314,-476.482,210.491,321.545,-327.491,161.626,185.246
2,0,-92.3574,424.4,1145.03,-104.829,153.324,1134.8,-305.408,339.266,1204.08,-302.725,233.841,1197.9,-135.974,488.136,860.996,-116.481,454.074,665.273,-131.715,447.009,457.112,-163.786,386.28,235.609,-228.636,338.095,189.194,-10.0768,383.331,190.699,-123.47,95.9968,844.17,-121.803,114.348,650.508,-253.791,113.415,483.614,-410.934,155.499,304.976,-471.825,211.475,332.527,-331.779,161.277,189.402
3,0,-93.9371,425.593,1144.64,-106.397,154.147,1134.7,-306.794,340.939,1204.07,-304.466,235.807,1196.83,-139.813,489.53,860.978,-122.038,455.627,664.842,-137.657,447.92,456.568,-169.984,386.334,235.304,-235.051,338.064,189.163,-16.3981,383.386,190.422,-117.936,95.6364,845.924,-112.853,113.954,652.073,-246.649,112.91,488.589,-407.44,155.461,312.702,-466.913,212.235,342.134,-334.13,161.066,193.416
4,0,-95.5182,426.755,1144.3,-107.942,154.962,1134.69,-308.186,342.48,1204.08,-306.158,237.623,1195.93,-143.573,490.808,860.943,-127.59,457.034,664.438,-143.618,448.737,456.076,-176.217,386.374,235.048,-241.438,338.015,189.142,-22.7274,383.423,190.16,-113.056,95.3032,847.627,-104.344,113.66,653.807,-239.536,112.514,493.217,-403.28,155.414,319.491,-461.744,212.773,350.367,-334.547,160.992,197.285
5,0,-97.1001,427.888,1143.99,-109.464,155.77,1134.77,-309.585,343.89,1204.13,-307.799,239.291,1195.18,-147.256,491.968,860.893,-133.139,458.298,664.063,-149.598,449.459,455.635,-182.482,386.399,234.839,-247.798,337.949,189.131,-29.0648,383.441,189.912,-108.825,94.9994,849.281,-96.2742,113.467,655.711,-232.449,112.226,497.496,-398.456,155.362,325.341,-456.312,213.097,357.225,-333.046,161.052,201.001
6,0,-98.6827,428.989,1143.73,-110.961,156.57,1134.94,-310.989,345.172,1204.21,-309.389,240.812,1194.59,-150.865,493.011,860.828,-138.682,459.417,663.716,-155.596,450.087,455.246,-188.78,386.408,234.675,-254.132,337.865,189.131,-35.4103,383.441,189.677,-105.232,94.7292,850.885,-88.642,113.375,657.779,-225.384,112.045,501.419,-392.97,155.308,330.248,-450.603,213.224,362.706,-329.653,161.238,204.551
7,0,-100.265,430.06,1143.52,-112.435,157.363,1135.19,-312.398,346.328,1204.31,-310.931,242.189,1194.16,-154.405,493.936,860.746,-144.221,460.394,663.397,-161.612,450.623,454.908,-195.105,386.401,234.553,-260.44,337.765,189.14,-41.764,383.426,189.456,-102.256,94.4992,852.44,-81.4439,113.383,660.009,-218.336,111.969,504.978,-386.827,155.26,334.206,-444.597,213.179,366.807,-324.414,161.539,207.914
8,0,-101.846,431.099,1143.34,-113.884,158.146,1135.53,-313.809,347.366,1204.45,-312.425,243.427,1193.87,-157.88,494.743,860.648,-149.754,461.231,663.105,-167.645,451.067,454.619,-201.454,386.377,234.47,-266.727,337.65,189.157,-48.1256,383.395,189.246,-99.8676,94.3182,853.946,-74.6759,113.491,662.39,-211.297,111.994,508.161,-380.032,155.225,337.209,-438.264,212.996,369.53,-317.394,161.937,211.062
9,0,-103.424,432.105,1143.19,-115.308,158.921,1135.96,-315.22,348.292,1204.61,-313.873,244.533,1193.74,-161.3,495.433,860.532,-155.281,461.93,662.839,-173.694,451.423,454.377,-207.822,386.336,234.419,-272.994,337.523,189.183,-54.4945,383.351,189.046,-98.0267,94.1962,855.408,-68.3342,113.698,664.911,-204.256,112.117,510.955,-372.593,155.213,339.251,-431.564,212.714,370.877,-308.683,162.409,213.965
10,0,-104.998,433.076,1143.08,-116.706,159.685,1136.46,-316.628,349.116,1204.79,-315.277,245.514,1193.74,-164.674,496.005,860.399,-160.802,462.497,662.6,-179.756,451.693,454.18,-214.201,386.276,234.396,-279.246,337.384,189.216,-60.8697,383.294,188.855,-96.6825,94.1439,856.83,-62.4161,114.002,667.557,-197.202,112.331,513.343,-364.517,155.233,340.33,-424.452,212.381,370.86,-298.385,162.927,216.585
11,0,-106.565,434.012,1142.98,-118.077,160.436,1137.04,-318.029,349.849,1205,-316.64,246.381,1193.87,-168.012,496.461,860.247,-166.316,462.938,662.386,-185.831,451.882,454.025,-220.584,386.199,234.392,-285.487,337.236,189.256,-67.2496,383.225,188.672,-95.7748,94.1708,858.219,-56.9206,114.403,670.304,-190.127,112.629,515.31,-355.809,155.294,340.448,-416.875,212.039,369.499,-286.625,163.46,218.89
12,0,-108.122,434.909,1142.91,-119.418,161.173,1137.69,-319.419,350.503,1205.22,-317.964,247.144,1194.13,-171.324,496.803,860.075,-171.823,463.258,662.196,-191.916,451.995,453.909,-226.964,386.103,234.402,-291.723,337.082,189.303,-73.6328,383.144,188.495,-95.2368,94.2842,859.586,-51.8501,114.898,673.127,-183.022,113,516.845,-346.474,155.399,339.613,-408.778,211.729,366.826,-273.539,163.975,220.851
13,0,-109.668,435.765,1142.84,-120.727,161.893,1138.4,-320.793,351.091,1205.46,-319.255,247.814,1194.5,-174.62,497.033,859.883,-177.323,463.467,662.027,-198.008,452.038,453.827,-233.335,385.99,234.419,-297.958,336.922,189.357,-80.0177,383.053,188.324,-94.9977,94.4877,860.94,-47.2098,115.483,675.995,-175.882,113.435,517.939,-336.516,155.55,337.846,-400.105,211.481,362.89,-259.268,164.442,222.443
14,0,-111.199,436.579,1142.76,-122.002,162.594,1139.17,-322.148,351.625,1205.71,-320.514,248.404,1194.97,-177.91,497.156,859.67,-182.814,463.574,661.879,-204.105,452.017,453.776,-239.693,385.861,234.438,-304.198,336.759,189.419,-86.403,382.95,188.159,-94.9863,94.7797,862.294,-43.0092,116.155,678.872,-168.707,113.923,518.588,-325.934,155.741,335.18,-390.805,211.316,357.757,-243.96,164.835,223.655
15,0,-112.713,437.348,1142.68,-123.241,163.273,1139.98,-323.479,352.116,1205.96,-321.746,248.924,1195.53,-181.203,497.177,859.436,-188.297,463.588,661.747,-210.205,451.941,453.751,-246.035,385.717,234.456,-310.451,336.594,189.491,-92.7883,382.835,188,-95.1347,95.1533,863.658,-39.2605,116.907,681.716,-161.5,114.452,518.797,-314.727,155.963,331.661,-380.83,211.239,351.512,-227.755,165.136,224.484
16,0,-114.209,438.069,1142.57,-124.438,163.925,1140.83,-324.782,352.574,1206.22,-322.955,249.385,1196.15,-184.503,497.103,859.179,-193.769,463.521,661.631,-216.305,451.815,453.747,-252.364,385.562,234.47,-316.722,336.428,189.574,-99.1741,382.709,187.847,-95.3811,95.5962,865.039,-35.9787,117.733,684.486,-154.273,115.008,518.577,-302.894,156.203,327.354,-370.145,211.24,344.26,-210.791,165.334,224.941
17,0,-115.683,438.741,1142.43,-125.591,164.549,1141.71,-326.055,353.007,1206.48,-324.142,249.796,1196.83,-187.817,496.94,858.899,-199.23,463.384,661.525,-222.403,451.648,453.761,-258.682,385.396,234.48,-323.018,336.262,189.67,-105.562,382.571,187.7,-95.6727,96.0905,866.443,-33.1796,118.623,687.136,-147.044,115.58,517.949,-290.434,156.444,322.338,-358.724,211.299,336.126,-193.196,165.432,225.052
18,0,-117.135,439.362,1142.25,-126.694,165.139,1142.6,-327.294,353.419,1206.74,-325.309,250.163,1197.54,-191.146,496.696,858.597,-204.677,463.188,661.427,-228.495,451.448,453.789,-264.997,385.222,234.49,-329.343,336.097,189.779,-111.954,382.424,187.558,-95.9674,96.6144,867.868,-30.8783,119.567,689.622,-139.836,116.157,516.941,-277.352,156.667,316.71,-346.555,211.387,327.252,-175.09,165.439,224.851
19,0,-118.565,439.929,1142.02,-127.743,165.693,1143.48,-328.497,353.811,1206.98,-326.459,250.491,1198.27,-194.492,496.38,858.274,-210.106,462.943,661.333,-234.579,451.222,453.826,-271.319,385.042,234.502,-335.703,335.934,189.903,-118.354,382.268,187.423,-96.2342,97.1432,869.309,-29.0872,120.554,691.899,-132.678,116.728,515.589,-263.663,156.856,310.583,-333.643,211.468,317.793,-156.583,165.376,224.39
20,0,-119.971,440.442,1141.73,-128.734,166.207,1144.36,-329.664,354.182,1207.21,-327.59,250.78,1199.01,-197.854,496,857.93,-215.512,462.66,661.24,-240.651,450.976,453.869,-277.656,384.858,234.52,-342.101,335.771,190.044,-124.765,382.105,187.292,-96.4531,97.6513,870.754,-27.8137,121.569,693.929,-125.605,117.283,513.937,-249.39,156.995,304.08,-320.012,211.509,307.92,-137.777,165.269,223.725
21,0,-121.354,440.9,1141.39,-129.659,166.679,1145.21,-330.794,354.526,1207.42,-328.7,251.03,1199.73,-201.229,495.565,857.568,-220.89,462.347,661.144,-246.708,450.716,453.918,-284.019,384.672,234.551,-348.539,335.61,190.201,-131.192,381.94,187.164,-96.6139,98.114,872.185,-27.0587,122.599,695.677,-118.657,117.815,512.032,-234.574,157.076,297.336,-305.703,211.48,297.806,-118.772,165.15,222.926
22,0,-122.716,441.304,1140.97,-130.514,167.105,1146.03,-331.887,354.833,1207.61,-329.787,251.236,1200.42,-204.615,495.081,857.189,-226.231,462.011,661.042,-252.744,450.446,453.97,-290.416,384.483,234.6,-355.016,335.451,190.375,-137.636,381.774,187.037,-96.7143,98.5094,873.581,-26.8146,123.627,697.115,-111.876,118.315,509.927,-219.275,157.095,290.489,-290.781,211.359,287.628,-99.6644,165.051,222.063
23,0,-124.058,441.652,1140.49,-131.293,167.482,1146.8,-332.943,355.093,1207.78,-330.846,251.391,1201.06,-208.005,494.556,856.799,-231.528,461.658,660.933,-258.756,450.169,454.024,-296.85,384.293,234.669,-361.53,335.293,190.568,-144.101,381.61,186.908,-96.7577,98.8203,874.917,-27.0648,124.638,698.224,-105.306,118.778,507.676,-203.572,157.056,283.678,-275.33,211.14,277.561,-80.554,165.003,221.209
24,0,-125.381,441.946,1139.94,-131.989,167.81,1147.51,-333.963,355.291,1207.91,-331.87,251.486,1201.65,-211.395,493.998,856.4,-236.77,461.292,660.815,-264.737,449.888,454.083,-303.325,384.099,234.764,-368.077,335.136,190.781,-150.589,381.453,186.774,-96.7515,99.0353,876.166,-27.7832,125.619,698.995,-98.9922,119.2,505.332,-187.571,156.97,277.037,-259.459,210.828,267.769,-61.5464,165.033,220.435
25,0,-126.687,442.187,1139.32,-132.597,168.086,1148.16,-334.947,355.411,1208,-332.853,251.509,1202.18,-214.777,493.41,855.999,-241.947,460.914,660.688,-270.681,449.603,454.147,-309.836,383.903,234.887,-374.652,334.979,191.018,-157.098,381.303,186.633,-96.7053,99.15,877.301,-28.9342,126.556,699.428,-92.9796,119.579,502.948,-171.398,156.854,270.687,-243.298,210.439,258.401,-42.7558,165.161,219.803
26,0,-127.978,442.375,1138.64,-133.11,168.309,1148.73,-335.897,355.437,1208.06,-333.785,251.448,1202.63,-218.142,492.798,855.599,-247.047,460.525,660.551,-276.582,449.313,454.221,-316.376,383.701,235.039,-381.246,334.824,191.283,-163.63,381.162,186.482,-96.6295,99.1676,878.296,-30.4739,127.437,699.532,-87.3106,119.913,500.571,-155.203,156.728,264.735,-227.001,210.004,249.59,-24.3079,165.401,219.362
27,0,-129.255,442.514,1137.91,-133.525,168.48,1149.21,-336.812,355.352,1208.07,-334.657,251.291,1202.99,-221.481,492.165,855.209,-252.06,460.124,660.408,-282.431,449.017,454.306,-322.935,383.492,235.222,-387.852,334.667,191.582,-170.182,381.031,186.319,-96.5344,99.0981,879.129,-32.3514,128.254,699.329,-82.0257,120.201,498.243,-139.155,156.617,259.268,-210.742,209.559,241.445,-6.34015,165.758,219.144
28,0,-130.519,442.603,1137.13,-133.835,168.599,1149.62,-337.692,355.14,1208.03,-335.458,251.024,1203.28,-224.783,491.514,854.834,-256.973,459.708,660.261,-288.221,448.711,454.408,-329.5,383.276,235.436,-394.461,334.51,191.924,-176.754,380.91,186.142,-96.4304,98.9584,879.782,-34.5113,129.002,698.845,-77.1618,120.447,495.996,-123.44,156.544,254.347,-194.712,209.143,234.046,10.9978,166.232,219.162
29,0,-131.769,442.645,1136.32,-134.036,168.664,1149.94,-338.535,354.786,1207.95,-336.179,250.636,1203.48,-228.037,490.847,854.48,-261.775,459.273,660.114,-293.944,448.392,454.53,-336.055,383.05,235.684,-401.065,334.349,192.316,-183.342,380.799,185.951,-96.3276,98.7708,880.242,-36.8954,129.68,698.116,-72.7527,120.654,493.858,-108.255,156.53,250.01,-179.12,208.795,227.447,27.5462,166.816,219.408
30,0,-133.004,442.641,1135.48,-134.125,168.679,1150.17,-339.339,354.28,1207.82,-336.81,250.118,1203.59,-231.228,490.166,854.154,-266.454,458.815,659.971,-299.59,448.054,454.678,-342.585,382.814,235.966,-407.656,334.184,192.77,-189.947,380.695,185.745,-96.2363,98.5612,880.499,-39.4454,130.29,697.182,-68.8284,120.828,491.845,-93.8036,156.594,246.268,-164.182,208.547,221.673,43.1384,167.501,219.851
31,0,-134.222,442.591,1134.63,-134.098,168.642,1150.32,-340.099,353.612,1207.64,-337.34,249.46,1203.62,-234.344,489.471,853.861,-270.999,458.33,659.837,-305.15,447.695,454.855,-349.077,382.566,236.287,-414.226,334.013,193.295,-196.568,380.596,185.526,-96.1671,98.3577,880.552,-42.1056,130.837,696.085,-65.4148,120.978,489.963,-80.2857,156.748,243.103,-150.12,208.423,216.719,57.6055,168.273,220.438
32,0,-135.417,442.497,1133.79,-133.954,168.556,1150.39,-340.812,352.778,1207.41,-337.76,248.658,1203.57,-237.368,488.763,853.606,-275.396,457.813,659.717,-310.613,447.308,455.064,-355.52,382.308,236.651,-420.771,333.831,193.9,-203.205,380.5,185.297,-96.1309,98.188,880.402,-44.8245,131.33,694.868,-62.5344,121.114,488.214,-67.8936,156.997,240.48,-137.151,208.434,212.552,70.7825,169.119,221.102
33,0,-136.586,442.358,1132.97,-133.69,168.422,1150.38,-341.471,351.777,1207.14,-338.064,247.71,1203.44,-240.285,488.042,853.392,-279.631,457.259,659.614,-315.967,446.89,455.307,-361.907,382.039,237.062,-427.288,333.638,194.594,-209.859,380.404,185.061,-96.1388,98.0779,880.058,-47.5576,131.78,693.574,-60.2055,121.25,486.587,-56.8028,157.344,238.338,-125.48,208.58,209.117,82.515,170.025,221.764
34,0,-137.72,442.174,1132.18,-133.308,168.239,1150.31,-342.071,350.612,1206.84,-338.245,246.617,1203.25,-243.079,487.307,853.22,-283.688,456.667,659.532,-321.198,446.437,455.586,-368.234,381.76,237.53,-433.775,333.431,195.383,-216.531,380.307,184.822,-96.2015,98.0489,879.532,-50.2681,132.2,692.239,-58.4423,121.4,485.07,-47.1657,157.782,236.608,-115.291,208.851,206.338,92.6675,170.98,222.339
35,0,-138.812,441.942,1131.45,-132.807,168.009,1150.17,-342.602,349.291,1206.5,-338.298,245.385,1203.01,-245.733,486.558,853.09,-287.547,456.033,659.471,-326.292,445.948,455.9,-374.503,381.472,238.061,-440.237,333.207,196.272,-223.223,380.206,184.584,-96.3283,98.1173,878.839,-52.9284,132.602,690.898,-57.2543,121.578,483.644,-39.1041,158.303,235.207,-106.736,209.226,204.126,101.131,171.972,222.746
36,0,-139.853,441.661,1130.78,-132.191,167.731,1149.99,-343.058,347.827,1206.14,-338.221,244.019,1202.72,-248.228,485.794,853,-291.183,455.36,659.431,-331.228,445.421,456.246,-380.72,381.177,238.664,-446.678,332.966,197.265,-229.936,380.1,184.354,-96.5266,98.2921,877.998,-55.5203,132.997,689.578,-56.6456,121.799,482.29,-32.7038,158.895,234.052,-99.9313,209.681,202.385,107.829,172.99,222.912
37,0,-140.833,441.328,1130.18,-131.462,167.407,1149.77,-343.431,346.233,1205.76,-338.013,242.531,1202.4,-250.548,485.016,852.945,-294.566,454.648,659.409,-335.986,444.859,456.621,-386.894,380.877,239.35,-453.108,332.708,198.364,-236.671,379.989,184.134,-96.801,98.5748,877.033,-58.0347,133.395,688.301,-56.6143,122.075,480.987,-28.0101,159.544,233.064,-94.9427,210.187,201.017,112.728,174.024,222.776
38,0,-141.741,440.938,1129.68,-130.626,167.034,1149.52,-343.714,344.527,1205.37,-337.676,240.933,1202.05,-252.673,484.222,852.92,-297.659,453.904,659.397,-340.539,444.264,457.022,-393.036,380.577,240.127,-459.539,332.437,199.575,-243.427,379.872,183.928,-97.1528,98.9586,875.966,-60.471,133.802,687.08,-57.1509,122.416,479.716,-25.0247,160.236,232.169,-91.7872,210.717,199.928,115.835,175.064,222.3
39,0,-142.567,440.488,1129.28,-129.688,166.613,1149.25,-343.898,342.731,1204.98,-337.213,239.24,1201.7,-254.582,483.415,852.915,-300.419,453.135,659.39,-344.857,443.643,457.443,-399.157,380.28,241.008,-465.984,332.159,200.903,-250.202,379.752,183.738,-97.5798,99.4288,874.823,-62.836,134.218,685.924,-58.2387,122.828,478.463,-23.7052,160.955,231.31,-90.4277,211.245,199.037,117.208,176.098,221.465
40,0,-143.301,439.973,1128.98,-128.655,166.142,1148.97,-343.98,340.863,1204.61,-336.63,237.466,1201.34,-256.253,482.594,852.92,-302.796,452.352,659.374,-348.905,443.005,457.879,-405.268,379.995,242.003,-472.456,331.882,202.359,-256.992,379.629,183.565,-98.0767,99.9628,873.631,-65.142,134.639,684.836,-59.8519,123.309,477.217,-23.9668,161.686,230.44,-90.7747,211.751,198.275,116.947,177.113,220.276
41,0,-143.933,439.387,1128.8,-127.536,165.619,1148.69,-343.954,338.947,1204.25,-335.932,235.629,1200.99,-257.659,481.763,852.925,-304.731,451.57,659.339,-352.641,442.362,458.325,-411.373,379.73,243.125,-478.965,331.621,203.963,-263.792,379.505,183.405,-98.6356,100.531,872.415,-67.4051,135.058,683.815,-61.9567,123.854,475.973,-25.6861,162.415,229.533,-92.6916,212.222,197.591,115.195,178.098,218.759
42,0,-144.456,438.726,1128.73,-126.34,165.043,1148.42,-343.82,337.001,1203.93,-335.13,233.743,1200.66,-258.774,480.927,852.917,-306.161,450.807,659.272,-356.022,441.729,458.78,-417.47,379.497,244.388,-485.517,331.392,205.741,-270.595,379.382,183.256,-99.2465,101.1,871.201,-69.643,135.459,682.856,-64.5111,124.449,474.729,-28.7074,163.127,228.576,-96.002,212.646,196.952,112.13,179.038,216.959
43,0,-144.864,437.986,1128.77,-125.077,164.412,1148.16,-343.575,335.046,1203.64,-334.233,231.823,1200.35,-259.564,480.091,852.884,-307.015,450.084,659.158,-358.997,441.123,459.242,-423.548,379.309,245.811,-492.107,331.216,207.733,-277.398,379.258,183.109,-99.8989,101.63,870.012,-71.8736,135.825,681.953,-67.466,125.075,473.491,-32.8516,163.809,227.572,-100.501,213.019,196.34,107.952,179.918,214.935
44,0,-145.151,437.161,1128.92,-123.759,163.724,1147.93,-343.225,333.098,1203.39,-333.253,229.883,1200.08,-259.995,479.264,852.815,-307.222,449.422,658.985,-361.514,440.564,459.713,-429.58,379.182,247.414,-498.719,331.116,209.99,-284.196,379.135,182.957,-100.582,102.081,868.87,-74.1125,136.135,681.099,-70.7669,125.707,472.266,-37.9257,164.445,226.533,-105.968,213.336,195.754,102.875,180.723,212.759
45,0,-145.317,436.249,1129.18,-122.398,162.976,1147.72,-342.772,331.171,1203.18,-332.201,227.933,1199.85,-260.028,478.455,852.701,-306.707,448.849,658.741,-363.515,440.073,460.199,-435.528,379.13,249.221,-505.318,331.115,212.579,-290.987,379.007,182.79,-101.286,102.413,867.794,-76.3725,136.364,680.288,-74.3561,126.315,471.067,-43.7335,165.022,225.481,-112.18,213.597,195.202,97.1136,181.439,210.504
46,0,-145.362,435.247,1129.53,-121.008,162.168,1147.53,-342.225,329.275,1203.01,-331.092,225.983,1199.66,-259.621,477.678,852.534,-305.4,448.389,658.42,-364.942,439.672,460.71,-441.336,379.169,251.262,-511.85,331.236,215.574,-297.776,378.87,182.598,-102.003,102.588,866.797,-78.6621,136.489,679.513,-78.1747,126.866,469.905,-50.0861,165.525,224.44,-118.924,213.801,194.697,90.8677,182.052,208.245
47,0,-145.289,434.154,1129.96,-119.6,161.298,1147.37,-341.595,327.418,1202.89,-329.939,224.041,1199.52,-258.732,476.944,852.31,-303.233,448.069,658.016,-365.739,439.384,461.26,-446.93,379.312,253.57,-518.238,331.498,219.065,-304.569,378.714,182.372,-102.724,102.572,865.891,-80.9857,136.488,678.77,-82.1657,127.33,468.793,-56.811,165.944,223.437,-126.009,213.945,194.258,84.3153,182.553,206.05
48,0,-145.104,432.971,1130.47,-118.191,160.366,1147.23,-340.892,325.602,1202.8,-328.757,222.112,1199.42,-257.319,476.271,852.031,-300.15,447.915,657.531,-365.847,439.228,461.865,-452.223,379.572,256.182,-524.381,331.915,223.142,-311.376,378.53,182.106,-103.444,102.34,865.082,-83.3434,136.342,678.056,-86.2759,127.676,467.741,-63.7594,166.266,222.492,-133.272,214.027,193.896,77.6036,182.932,203.979
49,0,-144.815,431.7,1131.03,-116.793,159.37,1147.11,-340.133,323.828,1202.75,-327.559,220.198,1199.37,-255.339,475.673,851.701,-296.102,447.948,656.969,-365.215,439.223,462.549,-457.109,379.955,259.137,-530.157,332.492,227.899,-318.213,378.303,181.799,-104.157,101.873,864.371,-85.7318,136.037,677.367,-90.4582,127.879,466.756,-70.8105,166.485,221.623,-140.585,214.047,193.622,70.8443,183.186,202.08
50,0,-144.432,430.346,1131.62,-115.422,158.313,1147.01,-339.332,322.094,1202.72,-326.361,218.302,1199.36,-252.757,475.166,851.328,-291.06,448.187,656.342,-363.796,439.385,463.334,-461.474,380.463,262.474,-535.424,333.227,233.422,-325.095,378.02,181.459,-104.86,101.164,863.755,-88.1449,135.562,676.703,-94.6732,127.919,465.842,-77.8738,166.596,220.839,-147.857,214.001,193.439,64.1136,183.315,200.383
51,0,-143.969,428.914,1132.25,-114.09,157.194,1146.91,-338.507,320.396,1202.7,-325.177,216.425,1199.38,-249.544,474.764,850.929,-285.008,448.643,655.667,-361.55,439.723,464.248,-465.196,381.095,266.228,-540.024,334.105,239.784,-332.031,377.668,181.102,-105.552,100.215,863.227,-90.5756,134.915,676.062,-98.89,127.786,464.999,-84.8878,166.598,220.146,-155.029,213.889,193.339,57.4545,183.325,198.909
52,0,-143.438,427.413,1132.88,-112.813,156.016,1146.81,-337.675,318.726,1202.68,-324.022,214.566,1199.43,-245.679,474.48,850.521,-277.952,449.324,654.967,-358.447,440.242,465.318,-468.155,381.841,270.43,-543.797,335.101,247.036,-339.023,377.236,180.756,-106.234,99.0405,862.777,-93.0163,134.099,675.441,-103.086,127.479,464.224,-91.8167,166.497,219.539,-162.073,213.715,193.313,50.8823,183.226,197.659
53,0,-142.855,425.853,1133.51,-111.602,154.782,1146.7,-336.854,317.079,1202.65,-322.908,212.726,1199.5,-241.155,474.323,850.129,-269.918,450.226,654.27,-354.471,440.941,466.569,-470.234,382.689,275.101,-546.582,336.181,255.2,-346.059,376.72,180.46,-106.908,97.6629,862.39,-95.4606,133.124,674.838,-107.248,127.003,463.509,-98.6463,166.301,219.01,-168.982,213.482,193.343,44.3915,183.032,196.625
54,0,-142.235,424.244,1134.11,-110.469,153.495,1146.58,-336.061,315.449,1202.59,-321.849,210.906,1199.59,-235.979,474.298,849.778,-260.953,451.34,653.608,-349.617,441.813,468.025,-471.334,383.622,280.251,-548.237,337.301,264.261,-353.101,376.12,180.268,-107.585,96.1143,862.05,-97.9035,132.005,674.249,-111.368,126.375,462.844,-105.378,166.024,218.549,-175.768,213.198,193.409,37.9635,182.762,195.789
55,0,-141.595,422.6,1134.68,-109.426,152.16,1146.43,-335.311,313.83,1202.51,-320.856,209.108,1199.68,-230.174,474.405,849.497,-251.127,452.648,653.017,-343.895,442.842,469.707,-471.375,384.618,285.874,-548.641,338.411,274.164,-360.083,375.451,180.243,-108.278,94.433,861.739,-100.342,130.762,673.668,-115.446,125.617,462.218,-112.023,165.681,218.14,-182.451,212.874,193.493,31.5737,182.436,195.122
56,0,-140.949,420.933,1135.21,-108.482,150.782,1146.24,-334.62,312.22,1202.38,-319.942,207.335,1199.78,-223.783,474.64,849.314,-240.526,454.122,652.534,-337.329,444.007,471.627,-470.305,385.654,291.947,-547.71,339.459,284.808,-366.903,374.734,180.458,-109.007,92.6616,861.438,-102.777,129.42,673.09,-119.486,124.757,461.618,-118.596,165.293,217.771,-189.054,212.523,193.574,25.1978,182.075,194.596
57,0,-140.313,419.259,1135.68,-107.646,149.366,1146.02,-333.998,310.617,1202.2,-319.116,205.592,1199.86,-216.864,474.993,849.256,-229.256,455.728,652.198,-329.959,445.282,473.795,-468.104,386.705,298.431,-545.402,340.392,296.053,-373.423,374.007,180.988,-109.797,90.8442,861.13,-105.208,128.007,672.509,-123.494,123.827,461.033,-125.116,164.878,217.428,-195.601,212.16,193.637,18.8161,181.699,194.177
58,0,-139.698,417.591,1136.1,-106.923,147.921,1145.75,-333.455,309.023,1201.98,-318.385,203.885,1199.94,-209.496,475.447,849.348,-217.436,457.426,652.047,-321.84,446.635,476.209,-464.786,387.747,305.266,-541.725,341.161,307.714,-379.461,373.317,181.905,-110.679,89.0242,860.797,-107.64,126.55,671.916,-127.478,122.86,460.452,-131.596,164.456,217.1,-202.108,211.799,193.671,12.4162,181.326,193.835
59,0,-139.117,415.943,1136.46,-106.318,146.452,1145.44,-332.997,307.442,1201.69,-317.756,202.222,1199.99,-201.771,475.983,849.609,-205.196,459.169,652.115,-313.04,448.032,478.86,-460.394,388.757,312.374,-536.73,341.725,319.573,-384.804,372.722,183.272,-111.684,87.2414,860.425,-110.078,125.078,671.306,-131.449,121.886,459.867,-138.047,164.046,216.779,-208.589,211.454,193.668,5.99421,180.971,193.543
60,0,-138.578,414.329,1136.76,-105.833,144.967,1145.08,-332.627,305.881,1201.36,-317.234,200.612,1200.02,-193.798,476.574,850.053,-192.671,460.911,652.435,-303.638,449.433,481.73,-455.003,389.714,319.659,-530.518,342.053,331.385,-389.207,372.287,185.135,-112.845,85.5304,860.002,-112.526,123.619,670.673,-135.414,120.936,459.272,-144.472,163.661,216.461,-215.049,211.138,193.628,-0.446239,180.646,193.278
61,0,-138.09,412.76,1137.01,-105.47,143.476,1144.67,-332.346,304.349,1200.99,-316.821,199.066,1200.02,-185.695,477.193,850.685,-179.999,462.602,653.033,-293.721,450.802,484.792,-448.706,390.598,327.012,-523.224,342.127,342.889,-392.411,372.076,187.512,-114.193,83.9191,859.521,-114.992,122.199,670.012,-139.381,120.033,458.663,-150.873,163.315,216.144,-221.487,210.86,193.551,-6.89521,180.355,193.022
62,0,-137.658,411.249,1137.21,-105.226,141.985,1144.21,-332.15,302.858,1200.59,-316.516,197.593,1200,-177.585,477.811,851.505,-167.313,464.193,653.929,-283.383,452.101,488.009,-441.61,391.395,334.306,-515.012,341.943,353.817,-394.152,372.151,190.393,-115.751,82.4281,858.975,-117.482,120.84,669.323,-143.358,119.198,458.041,-157.247,163.016,215.828,-227.901,210.626,193.443,-13.3388,180.102,192.764
63,0,-137.284,409.805,1137.38,-105.099,140.505,1143.71,-332.035,301.42,1200.17,-316.317,196.204,1199.96,-169.596,478.395,852.503,-154.743,465.642,655.135,-272.72,453.296,491.34,-433.824,392.094,341.408,-506.058,341.515,363.91,-394.182,372.562,193.733,-117.533,81.0705,858.366,-120.003,119.561,668.606,-147.352,118.444,457.408,-163.588,162.768,215.516,-234.283,210.44,193.312,-19.7615,179.886,192.496
64,0,-136.968,408.434,1137.52,-105.082,139.043,1143.18,-331.99,300.047,1199.75,-316.219,194.907,1199.9,-161.85,478.918,853.662,-142.407,466.907,656.659,-261.826,454.353,494.733,-425.451,392.689,348.176,-496.539,340.869,372.923,-392.283,373.341,197.453,-119.542,79.8523,857.697,-122.562,118.379,667.862,-151.368,117.782,456.769,-169.889,162.571,215.213,-240.626,210.302,193.169,-26.1484,179.702,192.217
65,0,-136.71,407.144,1137.65,-105.169,137.609,1142.61,-332.007,298.752,1199.35,-316.215,193.711,1199.83,-154.463,479.35,854.96,-130.411,467.954,658.495,-250.79,455.247,498.133,-416.58,393.179,354.463,-486.616,340.045,380.639,-388.286,374.495,201.441,-121.77,78.7737,856.975,-125.168,117.304,667.099,-155.414,117.215,456.13,-176.145,162.424,214.924,-246.923,210.209,193.021,-32.4871,179.545,191.928
66,0,-136.504,405.936,1137.79,-105.352,136.212,1142.03,-332.073,297.545,1198.99,-316.295,192.621,1199.76,-147.536,479.669,856.369,-118.849,468.757,660.632,-239.695,455.957,501.482,-407.276,393.566,360.126,-476.423,339.096,386.875,-382.076,376.008,205.562,-124.196,77.8298,856.212,-127.831,116.344,666.322,-159.495,116.741,455.501,-182.352,162.322,214.654,-253.169,210.156,192.881,-38.7689,179.409,191.632
67,0,-136.346,404.815,1137.95,-105.621,134.86,1141.43,-332.175,296.437,1198.69,-316.448,191.64,1199.69,-141.156,479.854,857.857,-107.797,469.295,663.05,-228.612,456.467,504.718,-397.585,393.859,365.025,-466.061,338.079,391.487,-373.607,377.834,209.66,-126.793,77.0127,855.422,-130.563,115.503,665.543,-163.621,116.358,454.89,-188.507,162.259,214.409,-259.364,210.136,192.755,-44.9894,179.287,191.334
68,0,-136.229,403.779,1138.14,-105.964,133.561,1140.83,-332.299,295.433,1198.48,-316.66,190.77,1199.64,-135.388,479.892,859.394,-97.3215,469.556,665.72,-217.599,456.768,507.782,-387.523,394.071,369.028,-455.589,337.06,394.375,-362.898,379.903,213.576,-129.522,76.3121,854.623,-133.377,114.781,664.773,-167.802,116.057,454.31,-194.611,162.229,214.193,-265.506,210.141,192.651,-51.1487,179.174,191.038
69,0,-136.142,402.828,1138.39,-106.371,132.323,1140.24,-332.432,294.539,1198.36,-316.916,190.008,1199.62,-130.277,479.771,860.948,-87.4709,469.534,668.606,-206.703,456.857,510.614,-377.085,394.216,372.022,-445.023,336.101,395.482,-350.032,382.125,217.155,-132.344,75.7172,853.832,-136.289,114.175,664.024,-172.048,115.829,453.77,-200.668,162.223,214.012,-271.598,210.163,192.577,-57.2509,179.066,190.751
70,0,-136.076,401.958,1138.71,-106.83,131.152,1139.67,-332.561,293.756,1198.36,-317.201,189.352,1199.64,-125.846,479.491,862.49,-78.2836,469.231,671.666,-195.957,456.738,513.161,-366.247,394.312,373.91,-434.343,335.262,394.793,-335.148,384.395,220.261,-135.222,75.2176,853.067,-139.315,113.681,663.31,-176.372,115.665,453.28,-206.684,162.235,213.868,-277.646,210.195,192.535,-63.3032,178.96,190.475
71,0,-136.02,401.167,1139.1,-107.327,130.055,1139.12,-332.672,293.082,1198.49,-317.499,188.795,1199.71,-122.094,479.054,863.997,-69.7876,468.654,674.849,-185.379,456.417,515.375,-354.97,394.376,374.621,-423.489,334.595,392.334,-318.426,386.608,222.783,-138.122,74.8034,852.345,-142.472,113.29,662.643,-180.788,115.554,452.85,-212.666,162.258,213.765,-283.656,210.229,192.531,-69.3151,178.857,190.214
72,0,-135.962,400.45,1139.58,-107.852,129.037,1138.61,-332.755,292.514,1198.76,-317.794,188.329,1199.84,-119.001,478.469,865.45,-62.0023,467.816,678.102,-174.981,455.909,517.213,-343.204,394.425,374.113,-412.377,334.139,388.168,-300.077,388.659,224.644,-141.016,74.4663,851.682,-145.779,112.994,662.035,-185.308,115.486,452.488,-218.625,162.287,213.705,-289.634,210.26,192.567,-75.2976,178.755,189.967
73,0,-135.89,399.802,1140.16,-108.392,128.101,1138.13,-332.801,292.047,1199.18,-318.071,187.946,1200.04,-116.529,477.75,866.837,-54.9412,466.733,681.366,-164.765,455.228,518.643,-330.898,394.471,372.373,-400.904,333.924,382.39,-280.328,390.455,225.806,-143.888,74.1995,851.089,-149.249,112.782,661.497,-189.945,115.451,452.202,-224.57,162.319,213.69,-295.587,210.283,192.647,-81.2617,178.657,189.736
74,0,-135.79,399.218,1140.84,-108.936,127.251,1137.7,-332.799,291.672,1199.73,-318.315,187.637,1200.32,-114.624,476.916,868.149,-48.6129,465.426,684.582,-154.726,454.394,519.644,-318.003,394.524,369.423,-388.957,333.962,375.123,-259.406,391.923,226.272,-146.73,73.9972,850.577,-152.897,112.643,661.038,-194.708,115.442,451.997,-230.51,162.348,213.723,-301.523,210.296,192.775,-87.2184,178.562,189.518
75,0,-135.651,398.693,1141.61,-109.474,126.488,1137.31,-332.744,291.381,1200.42,-318.514,187.394,1200.67,-113.221,475.993,869.385,-43.0229,463.918,687.689,-144.861,453.427,520.203,-304.473,394.589,365.319,-376.426,334.253,366.516,-237.531,393.009,226.085,-149.546,73.8549,850.151,-156.731,112.567,660.666,-199.603,115.452,451.876,-236.454,162.375,213.804,-307.446,210.296,192.955,-93.1773,178.473,189.311
76,0,-135.459,398.221,1142.48,-109.996,125.813,1136.98,-332.63,291.169,1201.23,-318.657,187.208,1201.11,-112.247,475.006,870.547,-38.1745,462.235,690.625,-135.168,452.35,520.319,-290.278,394.666,360.151,-363.208,334.783,356.739,-214.908,393.678,225.323,-152.346,73.7685,849.812,-160.755,112.541,660.385,-204.631,115.476,451.843,-242.409,162.396,213.935,-313.364,210.284,193.195,-99.1467,178.388,189.113
77,0,-135.202,397.797,1143.43,-110.492,125.223,1136.7,-332.452,291.026,1202.16,-318.736,187.075,1201.63,-111.625,473.987,871.64,-34.0688,460.406,693.333,-125.65,451.182,520.001,-275.397,394.751,354.037,-349.219,335.528,345.978,-191.721,393.918,224.096,-155.145,73.7346,849.56,-164.964,112.555,660.197,-209.79,115.51,451.896,-248.382,162.413,214.117,-319.281,210.26,193.502,-105.134,178.308,188.921
78,0,-134.868,397.417,1144.45,-110.956,124.717,1136.46,-332.207,290.949,1203.18,-318.743,186.99,1202.22,-111.279,472.967,872.669,-30.7046,458.458,695.76,-116.318,449.948,519.271,-259.831,394.835,347.125,-334.398,336.452,334.433,-168.137,393.731,222.537,-157.962,73.7496,849.393,-169.348,112.599,660.103,-215.069,115.551,452.035,-254.376,162.425,214.354,-325.202,210.228,193.886,-111.143,178.23,188.734
79,0,-134.447,397.075,1145.52,-111.381,124.291,1136.27,-331.893,290.933,1204.26,-318.674,186.953,1202.88,-111.136,471.976,873.638,-28.0781,456.423,697.858,-107.195,448.665,518.157,-243.601,394.908,339.584,-318.717,337.514,322.317,-144.304,393.133,220.795,-160.814,73.81,849.305,-173.889,112.663,660.099,-220.454,115.598,452.257,-260.393,162.433,214.647,-331.131,210.19,194.357,-117.179,178.153,188.549
80,0,-133.928,396.769,1146.64,-111.76,123.939,1136.13,-331.507,290.978,1205.39,-318.529,186.964,1203.59,-111.126,471.046,874.551,-26.1816,454.331,699.585,-98.3143,447.355,516.697,-226.753,394.956,331.601,-302.187,338.669,309.847,-120.357,392.149,219.027,-163.712,73.9121,849.29,-178.56,112.739,660.182,-225.925,115.651,452.558,-266.435,162.44,214.998,-337.072,210.15,194.927,-123.245,178.072,188.365
81,0,-133.303,396.494,1147.77,-112.088,123.656,1136.03,-331.05,291.086,1206.54,-318.306,187.029,1204.34,-111.189,470.204,875.407,-25.0021,452.212,700.912,-89.7235,446.035,514.935,-209.365,394.964,323.37,-284.858,339.87,297.246,-96.4293,390.811,217.387,-166.662,74.0523,849.342,-183.328,112.82,660.343,-231.458,115.709,452.933,-272.5,162.446,215.41,-343.028,210.111,195.606,-129.342,177.983,188.183
82,0,-132.565,396.246,1148.9,-112.362,123.434,1135.96,-330.518,291.261,1207.68,-318.01,187.153,1205.11,-111.274,469.471,876.202,-24.5205,450.099,701.817,-81.4801,444.721,512.918,-191.547,394.919,315.088,-266.829,341.067,284.733,-72.6551,389.157,216.018,-169.659,74.2267,849.452,-188.154,112.902,660.575,-237.024,115.773,453.376,-278.585,162.453,215.884,-349.002,210.077,196.402,-135.473,177.884,188.002
83,0,-131.707,396.022,1150,-112.576,123.268,1135.92,-329.913,291.509,1208.78,-317.644,187.347,1205.88,-111.337,468.866,876.925,-24.7099,448.018,702.29,-73.6515,443.429,510.699,-173.443,394.806,306.946,-248.243,342.214,272.518,-49.1803,387.232,215.044,-172.69,74.4317,849.613,-192.994,112.981,660.867,-242.594,115.844,453.879,-284.688,162.464,216.422,-354.997,210.051,197.322,-141.639,177.769,187.825
84,0,-130.725,395.821,1151.05,-112.728,123.148,1135.91,-329.232,291.84,1209.81,-317.212,187.619,1206.64,-111.348,468.397,877.565,-25.5347,445.999,702.333,-66.3121,442.171,508.327,-155.235,394.61,299.119,-229.294,343.264,260.797,-26.1689,385.086,214.559,-175.728,74.6639,849.815,-197.8,113.055,661.208,-248.137,115.921,454.435,-290.805,162.479,217.025,-361.014,210.034,198.368,-147.842,177.637,187.651
85,0,-129.619,395.64,1152.03,-112.815,123.068,1135.92,-328.476,292.261,1210.76,-316.722,187.981,1207.35,-111.283,468.066,878.104,-26.9496,444.066,701.959,-59.5389,440.958,505.851,-137.14,394.32,291.759,-210.218,344.174,249.747,-3.807,382.777,214.621,-178.74,74.9204,850.05,-202.524,113.123,661.585,-253.624,116.004,455.036,-296.933,162.498,217.693,-367.053,210.028,199.539,-154.082,177.486,187.483
86,0,-128.387,395.477,1152.91,-112.833,123.02,1135.94,-327.644,292.785,1211.59,-316.18,188.444,1208.01,-111.129,467.868,878.524,-28.8999,442.24,701.193,-53.4076,439.798,503.317,-119.407,393.925,284.988,-191.292,344.904,239.516,17.6951,380.374,215.244,-181.683,75.1989,850.307,-207.12,113.187,661.985,-259.027,116.093,455.674,-303.067,162.521,218.424,-373.115,210.032,200.829,-160.361,177.315,187.321
87,0,-127.031,395.332,1153.69,-112.779,122.999,1135.97,-326.736,293.418,1212.29,-315.591,189.018,1208.58,-110.882,467.788,878.806,-31.3211,440.538,700.069,-47.9878,438.699,500.764,-102.308,393.418,278.895,-172.823,345.418,230.218,38.1054,377.954,216.398,-184.51,75.4976,850.573,-211.542,113.249,662.394,-264.318,116.187,456.34,-309.204,162.546,219.217,-379.197,210.044,202.228,-166.681,177.125,187.166
88,0,-125.556,395.205,1154.35,-112.651,122.998,1136.01,-325.752,294.168,1212.84,-314.962,189.71,1209.05,-110.542,467.804,878.932,-34.1401,438.973,698.631,-43.3383,437.663,498.225,-86.1303,392.794,273.526,-155.135,345.687,221.932,57.177,375.6,218.002,-187.17,75.8158,850.837,-215.748,113.313,662.799,-269.476,116.285,457.026,-315.339,162.571,220.067,-385.298,210.061,203.723,-173.042,176.917,187.018
89,0,-123.967,395.097,1154.88,-112.445,123.015,1136.05,-324.695,295.041,1213.24,-314.298,190.525,1209.4,-110.117,467.889,878.889,-37.2762,437.554,696.93,-39.5027,436.693,495.728,-71.1604,392.053,268.891,-138.558,345.692,214.696,74.6585,373.397,219.934,-189.614,76.1539,851.084,-219.702,113.384,663.186,-274.481,116.385,457.722,-321.471,162.59,220.97,-391.414,210.076,205.3,-179.446,176.697,186.876
90,0,-122.273,395.01,1155.27,-112.159,123.047,1136.09,-323.565,296.037,1213.47,-313.603,191.465,1209.62,-109.618,468.013,878.666,-40.6433,436.282,695.023,-36.5065,435.788,493.293,-57.6702,391.2,264.962,-123.409,345.422,208.512,90.3083,371.429,222.037,-191.795,76.513,851.301,-223.373,113.468,663.543,-279.315,116.486,458.42,-327.595,162.598,221.92,-397.543,210.083,206.941,-185.893,176.466,186.739
91,0,-120.481,394.948,1155.51,-111.788,123.094,1136.13,-322.366,297.152,1213.53,-312.877,192.527,1209.7,-109.059,468.14,878.261,-44.1518,435.156,692.967,-34.3543,434.946,490.932,-45.9003,390.246,261.677,-109.977,344.881,203.344,103.911,369.768,224.125,-193.673,76.8959,851.474,-226.735,113.571,663.858,-283.964,116.587,459.112,-333.709,162.589,222.913,-403.681,210.072,208.633,-192.382,176.23,186.604
92,0,-118.604,394.915,1155.62,-111.33,123.157,1136.16,-321.101,298.379,1213.43,-312.122,193.703,1209.63,-108.455,468.239,877.68,-47.7114,434.17,690.824,-33.0288,434.161,488.656,-36.0438,389.205,258.951,-98.504,344.085,199.125,115.294,368.466,226.005,-195.215,77.3064,851.59,-229.767,113.7,664.119,-288.417,116.686,459.792,-339.811,162.553,223.942,-409.826,210.031,210.362,-198.91,175.994,186.469
93,0,-116.654,394.916,1155.6,-110.781,123.239,1136.18,-319.777,299.706,1213.18,-311.337,194.983,1209.41,-107.818,468.28,876.935,-51.2341,433.314,688.652,-32.491,433.427,486.47,-28.2332,388.097,256.683,-89.1707,343.063,195.764,124.346,367.556,227.489,-196.398,77.7491,851.639,-232.455,113.862,664.317,-292.663,116.783,460.452,-345.897,162.483,225.005,-415.975,209.948,212.12,-205.476,175.761,186.333
94,0,-114.644,394.957,1155.45,-110.138,123.345,1136.2,-318.398,301.115,1212.78,-310.518,196.348,1209.05,-107.162,468.239,876.046,-54.6368,432.577,686.505,-32.6818,432.74,484.375,-22.5297,386.947,254.767,-82.0863,341.857,193.157,131.023,367.039,228.412,-197.211,78.2297,851.61,-234.784,114.063,664.443,-296.691,116.878,461.088,-351.966,162.37,226.099,-422.126,209.81,213.902,-212.075,175.536,186.193
95,0,-112.587,395.047,1155.19,-109.4,123.481,1136.22,-316.972,302.586,1212.25,-309.663,197.781,1208.54,-106.496,468.1,875.042,-57.8446,431.946,684.435,-33.5252,432.091,482.372,-18.9187,385.779,253.102,-77.28,340.52,191.191,135.364,366.89,228.649,-197.649,78.7539,851.498,-236.745,114.311,664.491,-300.492,116.969,461.698,-358.014,162.205,227.225,-428.279,209.602,215.713,-218.701,175.321,186.047
96,0,-110.499,395.194,1154.85,-108.564,123.657,1136.22,-315.507,304.092,1211.61,-308.763,199.256,1207.91,-105.829,467.855,873.957,-60.7932,431.408,682.483,-34.9316,431.477,480.463,-17.3104,384.62,251.6,-74.7005,339.108,189.754,137.486,367.054,228.125,-197.72,79.3275,851.301,-238.328,114.608,664.454,-304.054,117.058,462.279,-364.035,161.98,228.386,-434.433,209.312,217.563,-225.347,175.118,185.895
97,0,-108.392,395.405,1154.43,-107.629,123.881,1136.22,-314.01,305.609,1210.89,-307.815,200.75,1207.16,-105.165,467.508,872.826,-63.4312,430.951,680.683,-36.8034,430.894,478.649,-17.5465,383.494,250.194,-74.2199,337.682,188.741,137.577,367.458,226.824,-197.436,79.9554,851.02,-239.522,114.959,664.33,-307.366,117.144,462.833,-370.025,161.69,229.592,-440.585,208.926,219.467,-232.003,174.929,185.738
98,0,-106.281,395.689,1153.96,-106.595,124.164,1136.21,-312.492,307.107,1210.09,-306.811,202.235,1206.33,-104.509,467.071,871.689,-65.7222,430.567,679.062,-39.0396,430.34,476.933,-19.4125,382.423,248.837,-75.6441,336.298,188.06,135.888,368.014,224.791,-196.815,80.641,850.657,-240.316,115.363,664.117,-310.411,117.227,463.362,-375.976,161.329,230.855,-446.732,208.436,221.453,-238.66,174.752,185.576
99,0,-104.18,396.055,1153.46,-105.462,124.514,1136.2,-310.96,308.559,1209.25,-305.745,203.684,1205.41,-103.86,466.568,870.583,-67.6456,430.25,677.633,-41.5414,429.817,475.317,-22.6548,381.427,247.509,-78.727,335.006,187.636,132.711,368.631,222.124,-195.88,81.3857,850.222,-240.696,115.82,663.813,-313.173,117.308,463.871,-381.877,160.896,232.19,-452.866,207.835,223.55,-245.306,174.587,185.412
100,0,-102.1,396.511,1152.94,-104.235,124.944,1136.19,-309.423,309.941,1208.38,-304.61,205.075,1204.45,-103.222,466.029,869.542,-69.1976,429.998,676.404,-44.2172,429.327,473.804,-26.9997,380.516,246.208,-83.1891,333.847,187.406,128.357,369.224,218.967,-194.652,82.1888,849.722,-240.643,116.324,663.42,-315.631,117.385,464.367,-387.715,160.393,233.62,-458.975,207.124,225.797,-251.93,174.433,185.247
101,0,-100.054,397.062,1152.44,-102.915,125.461,1136.17,-307.889,311.229,1207.52,-303.403,206.383,1203.47,-102.597,465.491,868.595,-70.3907,429.813,675.372,-46.987,428.877,472.398,-32.1733,379.702,244.949,-88.7368,332.847,187.325,123.135,369.723,215.492,-193.151,83.0466,849.17,-240.137,116.866,662.94,-317.763,117.457,464.858,-393.471,159.825,235.169,-465.04,206.307,228.238,-258.522,174.287,185.084
102,0,-98.0514,397.715,1151.95,-101.509,126.075,1136.16,-306.365,312.408,1206.67,-302.12,207.593,1202.48,-101.988,464.994,867.763,-71.253,429.7,674.526,-49.7861,428.476,471.101,-37.9196,378.987,243.757,-95.0814,332.022,187.355,117.331,370.08,211.885,-191.394,83.9525,848.577,-239.154,117.437,662.375,-319.543,117.521,465.354,-399.124,159.2,236.866,-471.031,205.395,230.92,-265.075,174.148,184.923
103,0,-96.1011,398.473,1151.51,-100.024,126.792,1136.14,-304.859,313.465,1205.85,-300.761,208.69,1201.5,-101.405,464.579,867.058,-71.8262,429.668,673.846,-52.5669,428.133,469.912,-44.0154,378.372,242.66,-101.956,331.374,187.473,111.187,370.269,208.325,-189.391,84.8974,847.954,-237.667,118.02,661.729,-320.944,117.574,465.864,-404.644,158.529,238.741,-476.91,204.407,233.894,-271.582,174.013,184.765
104,0,-94.2108,399.338,1151.11,-98.468,127.617,1136.11,-303.374,314.395,1205.08,-299.327,209.668,1200.57,-100.859,464.286,866.484,-72.1638,429.729,673.31,-55.3007,427.859,468.829,-50.28,377.854,241.684,-109.128,330.893,187.658,104.898,370.287,204.969,-187.147,85.8696,847.311,-235.65,118.6,661.006,-321.935,117.612,466.401,-409.996,157.828,240.825,-482.625,203.368,237.212,-278.044,173.881,184.609
105,0,-92.3868,400.308,1150.76,-96.8525,128.553,1136.09,-301.916,315.201,1204.37,-297.824,210.526,1199.68,-100.364,464.15,866.036,-72.3283,429.893,672.89,-57.9765,427.663,467.847,-56.5794,377.429,240.847,-116.41,330.562,187.894,98.5996,370.155,201.944,-184.661,86.8559,846.658,-233.074,119.157,660.212,-322.486,117.629,466.974,-415.141,157.114,243.151,-488.114,202.31,240.924,-284.465,173.752,184.452
106,0,-90.6344,401.381,1150.48,-95.1889,129.6,1136.06,-300.488,315.891,1203.73,-296.259,211.268,1198.87,-99.9403,464.197,865.702,-72.3878,430.173,672.556,-60.5999,427.556,466.956,-62.8258,377.09,240.159,-123.659,330.357,188.166,92.3758,369.905,199.334,-181.925,87.8415,846,-229.915,119.673,659.352,-322.565,117.62,467.595,-420.031,156.406,245.749,-493.3,201.269,245.078,-290.852,173.627,184.292
107,0,-88.9576,402.552,1150.25,-93.4906,130.756,1136.03,-299.093,316.481,1203.16,-294.644,211.908,1198.12,-99.6101,464.448,865.462,-72.4131,430.579,672.277,-63.1901,427.543,466.146,-68.9721,376.829,239.616,-130.781,330.251,188.46,86.2622,369.579,197.181,-178.927,88.8115,845.343,-226.15,120.128,658.434,-322.143,117.58,468.275,-424.613,155.726,248.646,-498.097,200.29,249.719,-297.22,173.506,184.126
108,0,-87.3594,403.813,1150.08,-91.7723,132.014,1135.99,-297.734,316.99,1202.65,-292.99,212.461,1197.46,-99.3978,464.912,865.292,-72.474,431.116,672.024,-65.7768,427.63,465.404,-75.0048,376.638,239.207,-137.722,330.215,188.763,80.2584,369.22,195.487,-175.65,89.7516,844.692,-221.765,120.503,657.464,-321.191,117.503,469.024,-428.83,155.094,251.865,-502.41,199.418,254.88,-303.583,173.393,183.956
109,0,-85.8423,405.155,1149.95,-90.0494,133.368,1135.95,-296.412,317.445,1202.22,-291.317,212.947,1196.87,-99.3287,465.587,865.167,-72.6365,431.79,671.771,-68.3958,427.819,464.714,-80.9334,376.509,238.911,-144.464,330.223,189.063,74.339,368.868,194.22,-172.077,90.6486,844.05,-216.75,120.785,656.451,-319.686,117.386,469.853,-432.623,154.534,255.425,-506.139,198.701,260.585,-309.954,173.291,183.783
110,0,-84.4083,406.566,1149.86,-88.3382,134.807,1135.89,-295.13,317.874,1201.85,-289.64,213.392,1196.35,-99.427,466.465,865.061,-72.9598,432.599,671.494,-71.0849,428.106,464.062,-86.7817,376.433,238.701,-151.015,330.253,189.347,68.4661,368.553,193.324,-168.19,91.4917,843.421,-211.107,120.961,655.408,-317.607,117.227,470.771,-435.931,154.065,259.336,-509.184,198.186,266.846,-316.344,173.205,183.619
111,0,-83.0589,408.032,1149.79,-86.6554,136.317,1135.83,-293.89,318.304,1201.54,-287.982,213.822,1195.89,-99.7139,467.526,864.948,-73.4935,433.536,671.174,-73.8808,428.486,463.434,-92.5794,376.402,238.549,-157.401,330.284,189.607,62.5993,368.296,192.727,-163.973,92.2727,842.811,-204.848,121.027,654.346,-314.943,117.026,471.79,-438.697,153.705,263.601,-511.453,197.916,273.655,-322.752,173.139,183.48
112,0,-81.7956,409.54,1149.74,-85.0177,137.883,1135.75,-292.696,318.766,1201.28,-286.364,214.263,1195.49,-100.206,468.743,864.807,-74.2766,434.591,670.8,-76.8153,428.949,462.818,-98.3548,376.408,238.427,-163.658,330.304,189.834,56.7036,368.107,192.351,-159.418,92.987,842.227,-197.995,120.98,653.281,-311.689,116.785,472.92,-440.866,153.47,268.214,-512.864,197.929,280.988,-329.16,173.095,183.394
113,0,-80.6198,411.075,1149.68,-83.4414,139.49,1135.66,-291.551,319.285,1201.07,-284.806,214.74,1195.13,-100.915,470.085,864.623,-75.3358,435.748,670.361,-79.9132,429.482,462.201,-104.131,376.443,238.309,-169.822,330.304,190.024,50.7541,367.985,192.121,-154.52,93.633,841.68,-190.585,120.827,652.231,-307.85,116.509,474.17,-442.394,153.371,273.16,-513.353,198.254,288.8,-335.532,173.077,183.395
114,0,-79.5329,412.622,1149.61,-81.9424,141.12,1135.56,-290.459,319.883,1200.9,-283.331,215.277,1194.8,-101.842,471.518,864.382,-76.6853,436.989,669.854,-83.191,430.071,461.578,-109.924,376.497,238.177,-175.93,330.277,190.176,44.7382,367.92,191.971,-149.287,94.2127,841.182,-182.663,120.578,651.216,-303.441,116.207,475.552,-443.241,153.416,278.413,-512.882,198.905,297.025,-341.804,173.082,183.528
115,0,-78.5365,414.167,1149.52,-80.5355,142.754,1135.44,-289.427,320.579,1200.76,-281.958,215.892,1194.48,-102.986,473.004,864.078,-78.3274,438.289,669.281,-86.6561,430.698,460.943,-115.74,376.565,238.017,-182.012,330.225,190.29,38.6555,367.899,191.848,-143.736,94.7305,840.75,-174.287,120.251,650.26,-298.487,115.889,477.075,-443.382,153.604,283.934,-511.439,199.883,305.577,-347.885,173.109,183.843
116,0,-77.6322,415.694,1149.38,-79.2343,144.374,1135.31,-288.461,321.383,1200.63,-280.705,216.601,1194.16,-104.332,474.509,863.712,-80.2535,439.624,668.647,-90.3076,431.345,460.294,-121.58,376.639,237.821,-188.087,330.147,190.37,32.5153,367.904,191.716,-137.897,95.1933,840.401,-165.524,119.864,649.385,-293.022,115.568,478.746,-442.801,153.931,289.677,-509.042,201.175,314.348,-353.65,173.15,184.395
117,0,-76.8218,417.192,1149.21,-78.0506,145.964,1135.17,-287.567,322.301,1200.53,-279.587,217.413,1193.84,-105.861,476.002,863.288,-82.4457,440.969,667.959,-94.1368,431.996,459.632,-127.44,376.712,237.591,-194.172,330.05,190.42,26.3336,367.919,191.551,-131.81,95.6087,840.155,-156.448,119.442,648.62,-287.092,115.259,480.571,-441.496,154.386,295.584,-505.742,202.746,323.217,-358.95,173.2,185.235
118,0,-76.1067,418.649,1148.98,-76.9947,147.506,1135.02,-286.753,323.331,1200.44,-278.618,218.331,1193.5,-107.549,477.453,862.812,-84.8794,442.299,667.228,-98.1293,432.633,458.961,-133.312,376.779,237.331,-200.272,329.937,190.448,20.1295,367.928,191.343,-125.529,95.9846,840.03,-147.138,119.012,647.991,-280.748,114.977,482.554,-439.471,154.954,301.585,-501.613,204.547,332.045,-363.606,173.246,186.41
119,0,-75.4883,420.055,1148.7,-76.0746,148.986,1134.87,-286.026,324.464,1200.36,-277.804,219.352,1193.13,-109.366,478.838,862.296,-87.5251,443.59,666.466,-102.267,433.241,458.286,-139.189,376.835,237.05,-206.388,329.814,190.461,13.922,367.919,191.093,-119.12,96.3283,840.045,-137.676,118.597,647.525,-274.045,114.739,484.692,-436.744,155.613,307.604,-496.755,206.517,340.686,-367.425,173.28,187.951
120,0,-74.9674,421.404,1148.36,-75.2964,150.39,1134.72,-285.393,325.686,1200.29,-277.152,220.471,1192.75,-111.28,480.141,861.753,-90.3515,444.82,665.685,-106.528,433.807,457.614,-145.063,376.876,236.762,-212.515,329.686,190.465,7.72767,367.884,190.81,-112.656,96.6453,840.212,-128.143,118.223,647.248,-267.044,114.561,486.978,-433.334,156.338,313.555,-491.281,208.58,348.988,-370.205,173.292,189.876
121,0,-74.5443,422.69,1147.98,-74.6636,151.708,1134.58,-284.859,326.979,1200.23,-276.661,221.673,1192.36,-113.259,481.349,861.196,-93.3274,445.973,664.898,-110.893,434.323,456.952,-150.93,376.9,236.48,-218.649,329.557,190.471,1.55836,367.82,190.504,-106.218,96.9392,840.544,-118.616,117.912,647.184,-259.803,114.457,489.398,-429.267,157.103,319.345,-485.309,210.659,356.798,-371.749,173.275,192.176
122,0,-74.2184,423.91,1147.55,-74.1777,152.933,1134.46,-284.429,328.321,1200.17,-276.33,222.942,1191.96,-115.275,482.452,860.64,-96.4243,447.035,664.118,-115.34,434.781,456.309,-156.788,376.906,236.219,-224.781,329.43,190.485,-4.57902,367.728,190.19,-99.8905,97.2116,841.045,-109.171,117.68,647.353,-252.376,114.438,491.931,-424.568,157.881,324.876,-478.956,212.673,363.968,-371.874,173.223,194.823
123,0,-73.9882,425.062,1147.09,-73.8375,154.057,1134.36,-284.107,329.687,1200.13,-276.151,224.259,1191.56,-117.3,483.449,860.096,-99.6173,447.995,663.356,-119.854,435.179,455.693,-162.635,376.892,235.991,-230.902,329.308,190.515,-10.6827,367.61,189.879,-93.7582,97.462,841.714,-99.8716,117.543,647.774,-244.812,114.514,494.547,-419.262,158.645,330.048,-472.323,214.549,370.359,-370.425,173.136,197.762
124,0,-73.8511,426.147,1146.6,-73.6399,155.08,1134.3,-283.892,331.053,1200.11,-276.116,225.602,1191.17,-119.317,484.339,859.578,-102.887,448.849,662.624,-124.419,435.514,455.112,-168.474,376.86,235.808,-237.005,329.191,190.569,-16.7552,367.471,189.58,-87.9025,97.6889,842.546,-90.7785,117.508,648.457,-237.152,114.69,497.21,-413.368,159.373,334.758,-465.492,216.224,375.841,-367.283,173.015,200.916
125,0,-73.8033,427.167,1146.09,-73.5796,156,1134.28,-283.784,332.395,1200.1,-276.211,226.95,1190.82,-121.312,485.123,859.093,-106.22,449.594,661.931,-129.026,435.789,454.573,-174.307,376.811,235.679,-243.084,329.079,190.654,-22.8023,367.319,189.3,-82.3982,97.8897,843.53,-81.9418,117.578,649.409,-229.426,114.967,499.872,-406.903,160.045,338.906,-458.52,217.65,380.301,-362.371,172.866,204.192
126,0,-73.8397,428.125,1145.58,-73.6492,156.819,1134.32,-283.78,333.692,1200.12,-276.424,228.281,1190.53,-123.28,485.807,858.65,-109.608,450.231,661.286,-133.667,436.008,454.086,-180.136,376.748,235.608,-249.133,328.971,190.778,-28.8314,367.159,189.041,-77.3101,98.0622,844.649,-73.4042,117.752,650.633,-221.652,115.339,502.484,-399.878,160.648,342.396,-451.431,218.795,383.643,-355.661,172.696,207.485
127,0,-73.954,429.025,1145.07,-73.8396,157.542,1134.41,-283.873,334.924,1200.18,-276.737,229.576,1190.3,-125.224,486.396,858.256,-113.05,450.766,660.699,-138.341,436.176,453.655,-185.963,376.673,235.599,-255.148,328.867,190.949,-34.8507,366.998,188.804,-72.6906,98.2049,845.885,-65.201,118.024,652.123,-213.84,115.798,504.987,-392.296,161.172,345.14,-444.221,219.649,385.79,-347.17,172.512,210.685
128,0,-74.1388,429.871,1144.58,-74.1401,158.174,1134.58,-284.055,336.077,1200.27,-277.136,230.818,1190.16,-127.152,486.894,857.914,-116.548,451.204,660.174,-143.047,436.3,453.289,-191.79,376.591,235.651,-261.128,328.767,191.173,-40.8676,366.841,188.586,-68.5778,98.3177,847.218,-57.3617,118.386,653.867,-205.991,116.331,507.322,-384.157,161.613,347.059,-436.859,220.217,386.683,-336.957,172.321,213.688
129,0,-74.3857,430.669,1144.12,-74.5387,158.723,1134.83,-284.316,337.143,1200.41,-277.603,231.992,1190.12,-129.079,487.307,857.626,-120.111,451.554,659.72,-147.79,436.386,452.992,-197.617,376.503,235.762,-267.071,328.669,191.459,-46.8881,366.691,188.383,-64.9946,98.4021,848.627,-49.9114,118.826,655.849,-198.095,116.92,509.428,-375.456,161.974,348.09,-429.287,220.523,386.287,-325.116,172.126,216.399
130,0,-74.6854,431.422,1143.7,-75.0224,159.196,1135.17,-284.644,338.115,1200.6,-278.122,233.089,1190.2,-131.023,487.64,857.395,-123.748,451.824,659.341,-152.573,436.441,452.77,-203.442,376.413,235.929,-272.982,328.576,191.813,-52.9166,366.551,188.191,-61.9483,98.461,850.093,-42.8724,119.331,658.045,-190.143,117.546,511.249,-366.182,162.258,348.182,-421.43,220.599,384.586,-311.771,171.931,218.737
131,0,-75.028,432.133,1143.32,-75.5773,159.602,1135.6,-285.026,338.994,1200.85,-278.678,234.102,1190.4,-133.006,487.897,857.22,-127.472,452.023,659.043,-157.405,436.473,452.628,-209.264,376.326,236.149,-278.862,328.489,192.241,-58.9555,366.42,188.007,-59.4315,98.4987,851.597,-36.2655,119.888,660.427,-182.119,118.186,512.73,-356.321,162.472,347.308,-413.199,220.488,381.585,-297.064,171.733,220.644
132,0,-75.4034,432.807,1143,-76.1889,159.95,1136.12,-285.446,339.782,1201.17,-279.257,235.029,1190.74,-135.049,488.082,857.102,-131.294,452.16,658.829,-162.291,436.486,452.569,-215.082,376.243,236.418,-284.718,328.41,192.75,-65.0055,366.299,187.828,-57.4231,98.5198,853.127,-30.1115,120.483,662.961,-174.012,118.818,513.83,-345.858,162.625,345.457,-404.502,220.237,377.312,-281.147,171.53,222.083
133,0,-75.8015,433.443,1142.73,-76.8424,160.247,1136.74,-285.89,340.487,1201.55,-279.846,235.87,1191.22,-137.173,488.198,857.039,-135.225,452.243,658.702,-167.24,436.485,452.597,-220.895,376.167,236.735,-290.557,328.344,193.346,-71.0661,366.186,187.654,-55.8903,98.5287,854.673,-24.4319,121.104,665.609,-165.812,119.423,514.513,-334.773,162.724,342.641,-395.241,219.888,371.816,-264.172,171.314,223.039
134,0,-76.2124,434.045,1142.53,-77.5227,160.501,1137.46,-286.344,341.118,1202.01,-280.434,236.629,1191.84,-139.394,488.249,857.03,-139.275,452.28,658.665,-172.258,436.474,452.714,-226.704,376.1,237.098,-296.389,328.295,194.031,-77.1362,366.078,187.483,-54.7908,98.5289,856.228,-19.2488,121.739,668.33,-157.518,119.981,514.76,-323.044,162.777,338.896,-385.328,219.48,365.166,-246.289,171.079,223.52
135,0,-76.6268,434.61,1142.38,-78.215,160.718,1138.26,-286.793,341.685,1202.55,-281.012,237.31,1192.59,-141.726,488.236,857.075,-143.45,452.277,658.719,-177.348,436.456,452.921,-232.512,376.043,237.51,-302.221,328.265,194.809,-83.2145,365.972,187.316,-54.0749,98.5219,857.788,-14.5849,122.378,671.081,-149.132,120.48,514.563,-310.651,162.787,334.279,-374.679,219.045,357.454,-227.636,170.821,223.554
136,0,-77.0361,435.138,1142.3,-78.9046,160.905,1139.14,-287.223,342.2,1203.17,-281.569,237.92,1193.46,-144.177,488.163,857.172,-147.751,452.238,658.862,-182.514,436.431,453.217,-238.322,375.998,237.972,-308.065,328.259,195.681,-89.3003,365.867,187.156,-53.6879,98.5071,859.353,-10.4623,123.014,673.818,-140.669,120.907,513.932,-297.575,162.757,328.87,-363.224,218.602,348.791,-208.339,170.535,223.187
137,0,-77.4329,435.626,1142.27,-79.5771,161.065,1140.1,-287.623,342.672,1203.86,-282.101,238.468,1194.44,-146.748,488.03,857.318,-152.176,452.169,659.094,-187.755,436.4,453.602,-244.141,375.964,238.488,-313.93,328.279,196.647,-95.3941,365.759,187.004,-53.5726,98.4813,860.924,-6.90165,123.638,676.495,-132.15,121.259,512.886,-283.798,162.687,322.769,-350.91,218.164,339.308,-188.509,170.221,222.481
138,0,-77.811,436.073,1142.29,-80.2185,161.202,1141.13,-287.983,343.111,1204.62,-282.598,238.958,1195.52,-149.435,487.841,857.512,-156.717,452.073,659.41,-193.068,436.362,454.07,-249.975,375.941,239.061,-319.825,328.325,197.704,-101.497,365.648,186.86,-53.6712,98.4388,862.502,-3.92037,124.246,679.068,-123.608,121.534,511.464,-269.311,162.573,316.096,-337.698,217.732,329.153,-168.243,169.883,221.512
139,0,-78.1653,436.475,1142.36,-80.8155,161.318,1142.2,-288.294,343.522,1205.45,-283.057,239.396,1196.67,-152.226,487.598,857.749,-161.363,451.951,659.804,-198.446,436.315,454.618,-255.832,375.927,239.696,-325.758,328.395,198.849,-107.613,365.533,186.725,-53.9268,98.3718,864.085,-1.53091,124.833,681.496,-115.082,121.737,509.712,-254.113,162.414,308.986,-323.569,217.303,318.488,-147.624,169.526,220.366
140,0,-78.492,436.828,1142.46,-81.3555,161.412,1143.31,-288.549,343.908,1206.33,-283.471,239.787,1197.88,-155.104,487.302,858.026,-166.093,451.807,660.269,-203.88,436.258,455.238,-261.718,375.919,240.395,-331.732,328.488,200.075,-113.746,365.413,186.598,-54.2856,98.2714,865.671,0.260831,125.394,683.741,-106.618,121.875,507.688,-238.216,162.208,301.587,-308.527,216.87,307.488,-126.728,169.162,219.137
141,0,-78.7887,437.13,1142.59,-81.8263,161.486,1144.44,-288.745,344.269,1207.26,-283.836,240.132,1199.11,-158.045,486.956,858.336,-170.887,451.64,660.796,-209.356,436.189,455.922,-267.637,375.915,241.157,-337.751,328.599,201.377,-119.9,365.291,186.477,-54.6982,98.1277,867.254,1.45709,125.927,685.769,-98.2675,121.957,505.456,-221.648,161.956,294.053,-292.597,216.425,296.335,-105.624,168.8,217.924
142,0,-79.0537,437.377,1142.74,-82.2168,161.538,1145.57,-288.877,344.6,1208.22,-284.144,240.428,1200.35,-161.022,486.561,858.674,-175.715,451.452,661.374,-214.858,436.104,456.66,-273.593,375.909,241.981,-343.814,328.719,202.744,-126.082,365.168,186.361,-55.1207,97.9317,868.822,2.06948,126.428,687.552,-90.0857,121.995,503.085,-204.457,161.661,286.541,-275.832,215.965,285.215,-84.3799,168.455,216.822
143,0,-79.2865,437.567,1142.89,-82.5166,161.566,1146.69,-288.946,344.894,1209.18,-284.392,240.674,1201.57,-164.002,486.121,859.031,-180.547,451.242,661.99,-220.369,436.003,457.441,-279.585,375.899,242.862,-349.919,328.842,204.17,-132.298,365.044,186.245,-55.5161,97.6752,870.36,2.11987,126.895,689.067,-82.1283,122,500.643,-186.716,161.33,279.206,-258.31,215.49,274.31,-63.0693,168.138,215.924
144,0,-79.487,437.699,1143.03,-82.7161,161.568,1147.76,-288.951,345.14,1210.14,-284.572,240.862,1202.75,-166.952,485.639,859.396,-185.347,451.011,662.629,-225.866,435.884,458.253,-285.61,375.879,243.794,-356.061,328.96,205.645,-138.552,364.921,186.126,-55.855,97.3522,871.847,1.64078,127.326,690.301,-74.4504,121.984,498.195,-168.522,160.977,272.191,-240.139,215.01,263.796,-41.7745,167.86,215.309
145,0,-79.6553,437.77,1143.16,-82.8065,161.542,1148.79,-288.893,345.326,1211.07,-284.678,240.985,1203.87,-169.833,485.117,859.761,-190.078,450.759,663.278,-231.328,435.746,459.083,-291.66,375.846,244.767,-362.234,329.063,207.161,-144.85,364.801,186.001,-56.1167,96.9594,873.257,0.675415,127.718,691.244,-67.104,121.956,495.8,-150.001,160.617,265.625,-221.457,214.541,253.836,-20.592,167.631,215.037
146,0,-79.7915,437.782,1143.25,-82.7802,161.485,1149.74,-288.773,345.436,1211.94,-284.705,241.033,1204.89,-172.61,484.56,860.112,-194.702,450.484,663.919,-236.73,435.589,459.918,-297.726,375.795,245.772,-368.429,329.145,208.711,-151.196,364.685,185.867,-56.2892,96.4965,874.561,-0.722932,128.071,691.898,-60.1365,121.923,493.509,-131.305,160.272,259.612,-202.434,214.103,244.573,0.36446,167.462,215.144
147,0,-79.8954,437.734,1143.31,-82.6304,161.393,1150.61,-288.593,345.457,1212.75,-284.645,240.995,1205.81,-175.247,483.971,860.438,-199.178,450.187,664.539,-242.05,435.416,460.745,-303.8,375.726,246.798,-374.642,329.2,210.289,-157.593,364.572,185.722,-56.3691,95.9668,875.727,-2.49181,128.384,692.267,-53.5896,121.894,491.361,-112.614,159.963,254.233,-183.268,213.722,236.127,20.9616,167.36,215.636
148,0,-79.9657,437.627,1143.31,-82.3513,161.265,1151.37,-288.356,345.372,1213.46,-284.491,240.861,1206.6,-177.708,483.355,860.725,-203.467,449.867,665.12,-247.262,435.229,461.551,-309.868,375.637,247.836,-380.866,329.227,211.89,-164.044,364.462,185.565,-56.361,95.3769,876.72,-4.56102,128.66,692.366,-47.4981,121.872,489.382,-94.1319,159.715,249.538,-164.186,213.424,228.588,41.0461,167.337,216.486
149,0,-80.0006,437.463,1143.25,-81.9384,161.097,1152.02,-288.06,345.167,1214.06,-284.238,240.62,1207.25,-179.963,482.718,860.962,-207.53,449.523,665.647,-252.344,435.032,462.325,-315.923,375.532,248.879,-387.095,329.227,213.514,-170.55,364.355,185.395,-56.2761,94.7369,877.508,-6.85433,128.901,692.213,-41.8897,121.863,487.586,-76.0794,159.549,245.543,-145.439,213.232,222.012,60.4466,167.404,217.631
150,0,-79.9966,437.243,1143.13,-81.388,160.887,1152.55,-287.708,344.831,1214.52,-283.88,240.263,1207.75,-181.981,482.065,861.135,-211.332,449.156,666.107,-257.272,434.829,463.056,-321.956,375.414,249.922,-393.327,329.206,215.159,-177.11,364.251,185.215,-56.1301,94.0606,878.061,-9.29152,129.113,691.832,-36.7851,121.871,485.973,-58.6913,159.485,242.234,-127.294,213.163,216.421,78.9765,167.578,218.981
151,0,-79.9491,436.97,1142.93,-80.6977,160.632,1152.94,-287.297,344.355,1214.84,-283.411,239.784,1208.09,-183.74,481.401,861.234,-214.837,448.764,666.485,-262.026,434.626,463.732,-327.962,375.292,250.963,-399.562,329.173,216.827,-183.726,364.148,185.026,-55.941,93.3646,878.354,-11.7907,129.301,691.25,-32.198,121.902,484.533,-42.2069,159.54,239.565,-110.028,213.227,211.802,96.4402,167.878,220.416
152,0,-79.8521,436.644,1142.66,-79.8664,160.33,1153.21,-286.827,343.734,1215,-282.827,239.178,1208.27,-185.218,480.731,861.247,-218.016,448.348,666.77,-266.586,434.429,464.347,-333.939,375.176,252.003,-405.8,329.145,218.522,-190.395,364.048,184.83,-55.7256,92.669,878.372,-14.2704,129.474,690.496,-28.1357,121.963,483.245,-26.8613,159.726,237.465,-93.9146,213.425,208.107,112.64,168.328,221.803
153,0,-79.6983,436.268,1142.31,-78.894,159.979,1153.34,-286.292,342.965,1214.99,-282.127,238.443,1208.28,-186.399,480.059,861.166,-220.838,447.907,666.95,-270.932,434.243,464.894,-339.887,375.078,253.049,-412.044,329.138,220.249,-197.116,363.949,184.631,-55.497,91.9961,878.108,-16.6526,129.642,689.602,-24.599,122.062,482.083,-12.8764,160.049,235.844,-79.2159,213.746,205.257,127.383,168.953,223.002
154,0,-79.4792,435.841,1141.89,-77.7819,159.577,1153.33,-285.691,342.052,1214.82,-281.307,237.582,1208.14,-187.271,479.39,860.983,-223.28,447.443,667.018,-275.047,434.074,465.367,-345.808,375.012,254.109,-418.297,329.174,222.017,-203.886,363.852,184.432,-55.2612,91.3703,877.567,-18.8643,129.814,688.598,-21.583,122.21,481.013,-0.450573,160.511,234.597,-66.1681,214.174,203.151,140.494,169.78,223.878
155,0,-79.1854,435.364,1141.4,-76.5324,159.121,1153.2,-285.017,341.003,1214.47,-280.368,236.599,1207.84,-187.825,478.726,860.693,-225.32,446.955,666.965,-278.915,433.927,465.765,-351.705,374.995,255.195,-424.563,329.276,223.834,-210.7,363.758,184.235,-55.0155,90.8172,876.767,-20.8406,130.002,687.516,-19.0768,122.417,480.002,10.2498,161.108,233.616,-54.9703,214.685,201.669,151.821,170.831,224.318
156,0,-78.8073,434.837,1140.85,-75.1495,158.61,1152.95,-284.264,339.828,1213.96,-279.311,235.503,1207.4,-188.057,478.069,860.291,-226.937,446.447,666.786,-282.519,433.805,466.087,-357.581,375.039,256.319,-430.842,329.464,225.715,-217.555,363.666,184.043,-54.7467,90.3619,875.735,-22.526,130.215,686.385,-17.0634,122.696,479.02,19.0991,161.831,232.797,-45.7732,215.254,200.684,161.247,172.121,224.237
157,0,-78.335,434.258,1140.24,-73.638,158.043,1152.59,-283.428,338.543,1213.3,-278.138,234.305,1206.83,-187.965,477.419,859.778,-228.116,445.921,666.48,-285.844,433.711,466.336,-363.433,375.16,257.497,-437.135,329.76,227.674,-224.444,363.576,183.858,-54.4312,90.0277,874.513,-23.8766,130.46,685.232,-15.5202,123.055,478.038,26.0191,162.67,232.046,-38.6709,215.851,200.068,168.697,173.655,223.587
158,0,-77.7594,433.624,1139.58,-72.0043,157.418,1152.14,-282.502,337.166,1212.49,-276.855,233.018,1206.14,-187.548,476.777,859.155,-228.841,445.382,666.043,-288.873,433.645,466.515,-369.258,375.367,258.744,-443.436,330.178,229.732,-231.36,363.489,183.681,-54.0367,89.8345,873.15,-24.8613,130.742,684.081,-14.4183,123.504,477.034,30.983,163.608,231.29,-33.6952,216.453,199.702,174.144,175.427,222.362
159,0,-77.0722,432.934,1138.89,-70.2558,156.734,1151.61,-281.481,335.717,1211.55,-275.466,231.659,1205.36,-186.809,476.14,858.426,-229.099,444.834,665.479,-291.59,433.607,466.633,-375.042,375.667,260.079,-449.734,330.73,231.912,-238.293,363.402,183.514,-53.5248,89.7961,871.702,-25.4626,131.064,682.953,-13.7234,124.047,475.996,34.0179,164.626,230.474,-30.8128,217.037,199.484,177.612,177.412,220.602
160,0,-76.2668,432.183,1138.17,-68.4012,155.991,1151.02,-280.361,334.217,1210.51,-273.978,230.242,1204.5,-185.749,475.508,857.597,-228.879,444.286,664.79,-293.977,433.597,466.7,-380.766,376.062,261.518,-456.009,331.419,234.244,-245.234,363.315,183.355,-52.8551,89.9187,870.227,-25.6769,131.422,681.869,-13.3967,124.684,474.917,35.2032,165.701,229.569,-29.9279,217.587,199.33,179.177,179.572,218.384
161,0,-75.3388,431.369,1137.44,-66.4501,155.188,1150.38,-279.139,332.69,1209.38,-272.399,228.786,1203.58,-184.372,474.877,856.677,-228.167,443.747,663.982,-296.013,433.612,466.728,-386.403,376.548,263.08,-462.234,332.24,236.762,-252.172,363.226,183.203,-51.9902,90.1996,868.782,-25.5148,131.809,680.841,-13.3958,125.406,473.8,34.6666,166.81,228.57,-30.8878,218.089,199.181,178.964,181.855,215.815
162,0,-74.286,430.488,1136.71,-64.4134,154.327,1149.71,-277.814,331.155,1208.19,-270.738,227.306,1202.62,-182.681,474.247,855.678,-226.954,443.229,663.064,-297.679,433.649,466.731,-391.916,377.118,264.785,-468.368,333.181,239.504,-259.096,363.132,183.055,-50.9012,90.6251,867.422,-25,132.216,679.882,-13.677,126.203,472.656,32.5776,167.926,227.489,-33.4923,218.536,198.999,177.14,184.196,213.027
163,0,-73.1095,429.538,1136,-62.3028,153.408,1149.03,-276.387,329.632,1206.96,-269.005,225.817,1201.65,-180.68,473.617,854.613,-225.227,442.745,662.045,-298.952,433.708,466.728,-397.258,377.757,266.651,-474.361,334.221,242.515,-265.995,363.03,182.908,-49.5722,91.171,866.19,-24.1688,132.627,679,-14.197,127.053,471.5,29.137,169.019,226.358,-37.5064,218.924,198.769,173.906,186.525,210.158
164,0,-71.813,428.516,1135.31,-60.131,152.433,1148.36,-274.862,328.138,1205.71,-267.21,224.333,1200.68,-178.372,472.987,853.496,-222.976,442.31,660.936,-299.806,433.787,466.735,-402.377,378.447,268.701,-480.15,335.332,245.839,-272.859,362.918,182.758,-48.0044,91.8028,865.12,-23.0688,133.023,678.2,-14.9162,127.933,470.353,24.567,170.062,225.215,-42.6749,219.249,198.494,169.486,188.772,207.344
165,0,-70.4039,427.421,1134.65,-57.9116,151.406,1147.7,-273.246,326.686,1204.47,-265.364,222.864,1199.74,-175.76,472.359,852.346,-220.19,441.941,659.754,-300.216,433.886,466.774,-407.209,379.167,270.955,-485.659,336.479,249.525,-279.679,362.793,182.601,-46.2186,92.4774,864.232,-21.7568,133.385,677.481,-15.8003,128.812,469.233,19.0979,171.027,224.104,-48.7372,219.51,198.188,164.113,190.867,204.706
166,0,-68.8925,426.253,1134.04,-55.6586,150.33,1147.08,-271.546,325.286,1203.25,-263.477,221.418,1198.83,-172.848,471.735,851.178,-216.861,441.656,658.511,-300.155,434.007,466.865,-411.687,379.894,273.434,-490.803,337.626,253.622,-286.449,362.652,182.432,-44.2552,93.1453,863.534,-20.2972,133.69,676.84,-16.8227,129.658,468.162,12.9568,171.886,223.066,-55.4414,219.705,197.873,158.017,192.754,202.338
167,0,-67.2921,425.015,1133.49,-53.3868,149.208,1146.49,-269.776,323.943,1202.08,-261.563,220.001,1197.98,-169.64,471.122,850.01,-212.981,441.472,657.226,-299.597,434.155,467.028,-415.739,380.604,276.159,-495.486,338.732,258.176,-293.163,362.491,182.251,-42.1728,93.7544,863.017,-18.7598,133.917,676.273,-17.9663,130.437,467.155,6.35651,172.619,222.136,-62.5574,219.83,197.574,151.414,194.388,200.308
168,0,-65.6186,423.711,1132.99,-51.1116,148.048,1145.96,-267.948,322.658,1200.98,-259.633,218.615,1197.2,-166.141,470.524,848.862,-208.546,441.405,655.916,-298.515,434.333,467.286,-419.291,381.276,279.149,-499.609,339.758,263.228,-299.816,362.306,182.058,-40.0447,94.2531,862.663,-17.2174,134.046,675.768,-19.2237,131.117,466.225,-0.513398,173.209,221.338,-69.8856,219.883,197.312,144.498,195.74,198.65
169,0,-63.8905,422.344,1132.55,-48.8484,146.853,1145.48,-266.08,321.428,1199.94,-257.698,217.259,1196.5,-162.358,469.952,847.749,-203.553,441.469,654.599,-296.886,434.55,467.658,-422.272,381.891,282.419,-503.071,340.671,268.811,-306.403,362.092,181.861,-37.9532,94.5947,862.441,-15.7431,134.058,675.314,-20.5969,131.67,465.377,-7.49317,173.643,220.685,-77.2637,219.862,197.107,137.431,196.8,197.367
170,0,-62.1277,420.924,1132.19,-46.6131,145.631,1145.06,-264.19,320.247,1198.99,-255.772,215.93,1195.88,-158.298,469.412,846.69,-198.007,441.677,653.297,-294.688,434.812,468.165,-424.614,382.436,285.985,-505.774,341.44,274.951,-312.917,361.844,181.673,-35.9836,94.7407,862.317,-14.408,133.94,674.897,-22.0966,132.073,464.612,-14.4565,173.918,220.177,-84.5687,219.766,196.968,130.342,197.572,196.435
171,0,-60.3514,419.46,1131.89,-44.4215,144.389,1144.7,-262.298,319.105,1198.13,-253.866,214.625,1195.35,-153.972,468.913,845.7,-191.917,442.035,652.028,-291.906,435.128,468.823,-426.259,382.903,289.856,-507.631,342.045,281.658,-319.342,361.554,181.517,-34.2181,94.6636,862.25,-13.2785,133.68,674.503,-23.74,132.309,463.924,-21.3114,174.038,219.805,-91.7166,219.596,196.9,123.328,198.075,195.81
172,0,-58.5832,417.962,1131.67,-42.2892,143.133,1144.4,-260.424,317.992,1197.36,-251.993,213.338,1194.91,-149.393,468.465,844.794,-185.298,442.547,650.813,-288.529,435.507,469.65,-427.161,383.289,294.039,-508.57,342.473,288.931,-325.658,361.217,181.425,-32.7289,94.3489,862.2,-12.4135,133.276,674.114,-25.5478,132.369,463.305,-27.9986,174.013,219.55,-98.6584,219.354,196.897,116.45,198.34,195.434
173,0,-56.8447,416.443,1131.51,-40.2316,141.872,1144.15,-258.59,316.896,1196.68,-250.166,212.062,1194.57,-144.577,468.075,843.986,-178.172,443.21,649.674,-284.553,435.954,470.657,-427.288,383.6,298.535,-508.537,342.72,296.749,-331.828,360.827,181.439,-31.574,93.7957,862.132,-11.8628,132.725,673.719,-27.5423,132.252,462.742,-34.4881,173.858,219.388,-105.375,219.048,196.951,109.742,198.406,195.242
174,0,-55.1567,414.917,1131.41,-38.2636,140.611,1143.94,-256.818,315.803,1196.09,-248.396,210.793,1194.32,-139.543,467.749,843.29,-170.569,444.017,648.632,-279.983,436.474,471.857,-426.626,383.844,303.341,-507.505,342.791,305.075,-337.803,360.382,181.612,-30.7931,93.0158,862.015,-11.6649,132.035,673.303,-29.7436,131.964,462.221,-40.7742,173.593,219.295,-111.872,218.687,197.049,103.216,198.315,195.172
175,0,-53.5386,413.398,1131.38,-36.3993,139.358,1143.78,-255.127,314.705,1195.59,-246.697,209.527,1194.15,-134.315,467.492,842.717,-162.525,444.955,647.707,-274.83,437.069,473.257,-425.18,384.033,308.448,-505.474,342.699,313.853,-343.515,359.885,182.003,-30.4063,92.0327,861.825,-11.8456,131.215,672.857,-32.1682,131.517,461.729,-46.8694,173.243,219.243,-118.168,218.28,197.175,96.8644,198.109,195.164
176,0,-52.0082,411.9,1131.4,-34.6522,138.12,1143.65,-253.537,313.592,1195.16,-245.08,208.26,1194.06,-128.919,467.305,842.277,-154.084,446.005,646.923,-269.118,437.739,474.86,-422.97,384.185,313.841,-502.472,342.459,323.008,-348.877,359.345,182.676,-30.4143,90.8784,861.547,-12.4179,130.281,672.373,-34.8264,130.93,461.252,-52.7989,172.829,219.211,-124.294,217.84,197.313,90.6691,197.827,195.17
177,0,-50.5808,410.437,1131.48,-33.0344,136.903,1143.55,-252.064,312.457,1194.81,-243.558,206.994,1194.04,-123.386,467.188,841.981,-145.297,447.146,646.299,-262.876,438.478,476.666,-420.037,384.313,319.497,-498.556,342.093,332.445,-353.783,358.78,183.696,-30.7999,89.5913,861.175,-13.3821,129.25,671.849,-37.7218,130.225,460.783,-58.595,172.374,219.179,-130.286,217.38,197.452,84.6052,197.502,195.153
178,0,-49.2695,409.023,1131.61,-31.557,135.712,1143.46,-250.722,311.299,1194.52,-242.141,205.729,1194.09,-117.75,467.14,841.837,-136.217,448.351,645.857,-256.142,439.276,478.671,-416.432,384.433,325.386,-493.804,341.619,342.055,-358.108,358.221,185.122,-31.5318,88.2123,860.709,-14.7265,128.143,671.284,-40.8508,129.426,460.312,-64.2924,171.899,219.134,-136.176,216.909,197.579,78.6452,197.16,195.089
179,0,-48.0844,407.671,1131.79,-30.2296,134.553,1143.38,-249.523,310.118,1194.29,-240.841,204.471,1194.19,-112.05,467.156,841.852,-126.905,449.593,645.615,-248.963,440.122,480.866,-412.216,384.553,331.466,-488.319,341.055,351.712,-361.712,357.708,186.999,-32.5682,86.7824,860.157,-16.4295,126.982,670.682,-44.2034,128.558,459.839,-69.9242,171.42,219.067,-141.995,216.439,197.689,72.7631,196.818,194.963
180,0,-47.0332,406.39,1132.01,-29.0604,133.429,1143.31,-248.476,308.919,1194.12,-239.667,203.227,1194.35,-106.326,467.229,842.033,-117.422,450.843,645.592,-241.39,441,483.234,-407.452,384.683,337.686,-482.213,340.414,361.278,-364.445,357.293,189.359,-33.8615,85.3403,859.533,-18.4619,125.792,670.049,-47.7643,127.647,459.362,-75.5198,170.951,218.977,-147.769,215.978,197.777,66.9354,196.489,194.774
181,0,-46.1204,405.19,1132.28,-28.0558,132.344,1143.23,-247.585,307.712,1194,-238.627,202.007,1194.55,-100.619,467.354,842.382,-107.829,452.074,645.803,-233.478,441.89,485.758,-402.205,384.823,343.985,-475.606,339.706,370.607,-366.155,357.035,192.209,-35.3628,83.9205,858.853,-20.7891,124.594,669.393,-51.5144,126.715,458.884,-81.1031,170.501,218.863,-153.516,215.532,197.845,61.1431,196.175,194.526
182,0,-45.3484,404.076,1132.59,-27.2204,131.302,1143.15,-246.852,306.506,1193.93,-237.729,200.822,1194.78,-94.9727,467.522,842.904,-98.1903,453.258,646.262,-225.285,442.773,488.412,-396.534,384.971,350.29,-468.616,338.937,379.546,-366.693,356.996,195.529,-37.0262,82.5523,858.137,-23.3749,123.411,668.726,-55.4332,125.784,458.412,-86.6921,170.075,218.732,-159.248,215.105,197.894,55.3715,195.876,194.23
183,0,-44.7166,403.055,1132.96,-26.5572,130.306,1143.06,-246.275,305.318,1193.91,-236.978,199.684,1195.05,-89.4297,467.726,843.599,-88.5649,454.374,646.978,-216.871,443.627,491.167,-390.487,385.124,356.515,-461.353,338.108,387.942,-365.921,357.238,199.272,-38.8118,81.2593,857.404,-26.1831,122.262,668.057,-59.5003,124.874,457.952,-92.2989,169.677,218.59,-164.973,214.701,197.931,49.6099,195.586,193.899
184,0,-44.2227,402.127,1133.37,-26.0671,129.356,1142.96,-245.851,304.162,1193.94,-236.377,198.607,1195.34,-84.031,467.958,844.466,-79.0109,455.401,647.959,-208.291,444.432,493.989,-384.106,385.275,362.565,-453.914,337.224,395.644,-363.724,357.812,203.363,-40.6883,80.0598,856.675,-29.181,121.167,667.401,-63.697,124.001,457.511,-97.9307,169.307,218.444,-170.696,214.321,197.962,43.8512,195.3,193.549
185,0,-43.862,401.292,1133.84,-25.7494,128.456,1142.84,-245.572,303.057,1194.04,-235.927,197.602,1195.65,-78.8151,468.212,845.501,-69.5825,456.324,649.206,-199.6,445.171,496.841,-377.416,385.418,368.337,-446.373,336.288,402.507,-360.012,358.755,207.702,-42.6348,78.9667,855.97,-32.3406,120.141,666.766,-68.0078,123.177,457.099,-103.591,168.966,218.305,-176.417,213.967,197.993,38.0906,195.009,193.193
186,0,-43.6284,400.55,1134.37,-25.6015,127.607,1142.72,-245.429,302.017,1194.2,-235.628,196.682,1195.99,-73.8164,468.481,846.7,-60.3303,457.133,650.72,-190.847,445.826,499.683,-370.433,385.55,373.72,-438.785,335.311,408.396,-354.73,360.084,212.167,-44.641,77.9887,855.305,-35.6403,119.197,666.164,-72.4211,122.414,456.723,-109.279,168.651,218.179,-182.136,213.638,198.032,32.3252,194.709,192.844
187,0,-43.5145,399.894,1134.96,-25.6191,126.811,1142.59,-245.41,301.06,1194.43,-235.477,195.857,1196.36,-69.0649,468.759,848.055,-51.3014,457.819,652.493,-182.076,446.388,502.475,-363.161,385.671,378.601,-431.179,334.308,413.19,-347.858,361.79,216.623,-46.7065,77.1308,854.696,-39.0657,118.345,665.603,-76.9296,121.72,456.389,-114.994,168.36,218.072,-187.853,213.334,198.083,26.5529,194.395,192.512
188,0,-43.5115,399.322,1135.62,-25.7963,126.068,1142.46,-245.505,300.198,1194.74,-235.467,195.135,1196.74,-64.585,469.044,849.557,-42.5394,458.382,654.515,-173.324,446.85,505.174,-355.598,385.784,382.865,-423.564,333.303,416.783,-339.411,363.84,220.93,-48.8399,76.3954,854.154,-42.6092,117.594,665.091,-81.53,121.102,456.103,-120.733,168.094,217.992,-193.569,213.055,198.152,20.7721,194.066,192.204
189,0,-43.6099,398.826,1136.36,-26.1257,125.38,1142.32,-245.699,299.444,1195.15,-235.593,194.52,1197.16,-60.3956,469.329,851.197,-34.0851,458.821,656.77,-164.623,447.211,507.738,-347.731,385.899,386.403,-415.924,332.329,419.086,-329.441,366.176,224.948,-51.0566,75.7824,853.688,-46.2699,116.949,664.634,-86.2226,120.564,455.869,-126.492,167.849,217.94,-199.285,212.801,198.243,14.9809,193.724,191.922
190,0,-43.7996,398.399,1137.18,-26.5988,124.749,1142.18,-245.981,298.806,1195.65,-235.843,194.017,1197.6,-56.5094,469.614,852.962,-25.9773,459.142,659.239,-155.996,447.475,510.128,-339.542,386.029,389.113,-408.225,331.423,420.032,-318.026,368.722,228.551,-53.3763,75.2903,853.303,-50.0523,116.413,664.234,-91.0107,120.109,455.691,-132.271,167.625,217.919,-205.005,212.572,198.357,9.17751,193.373,191.669
191,0,-44.0699,398.035,1138.09,-27.2059,124.175,1142.04,-246.336,298.287,1196.25,-236.207,193.624,1198.08,-52.934,469.896,854.839,-18.2535,459.35,661.897,-147.461,447.651,512.305,-331.012,386.189,390.905,-400.418,330.629,419.574,-305.267,371.391,231.628,-55.8201,74.9162,853,-53.9653,115.987,663.893,-95.8992,119.737,455.568,-138.066,167.421,217.931,-210.731,212.366,198.498,3.35971,193.019,191.443
192,0,-44.4098,397.726,1139.08,-27.9363,123.66,1141.91,-246.753,297.889,1196.96,-236.673,193.339,1198.59,-49.6714,470.171,856.815,-10.9505,459.452,664.715,-139.03,447.752,514.236,-322.116,386.399,391.705,-392.439,329.99,417.685,-291.282,374.095,234.094,-58.4083,74.6566,852.778,-58.02,115.67,663.614,-100.894,119.449,455.501,-143.877,167.236,217.976,-216.469,212.182,198.665,-2.47495,192.668,191.239
193,0,-44.8081,397.467,1140.15,-28.7787,123.205,1141.79,-247.22,297.61,1197.77,-237.226,193.156,1199.15,-46.7195,470.439,858.877,-4.10517,459.457,667.66,-130.71,447.795,515.89,-312.83,386.676,391.458,-384.214,329.547,414.364,-276.191,376.749,235.892,-61.1578,74.5071,852.63,-62.2289,115.457,663.393,-106.002,119.243,455.49,-149.704,167.07,218.052,-222.226,212.019,198.861,-8.32903,192.328,191.054
194,0,-45.2535,397.251,1141.32,-29.7212,122.811,1141.67,-247.727,297.445,1198.7,-237.853,193.069,1199.76,-44.0728,470.698,861.007,2.2458,459.373,670.695,-122.504,447.799,517.242,-303.126,387.04,390.134,-375.663,329.335,409.628,-260.119,379.285,236.995,-64.0801,74.4631,852.549,-66.6033,115.345,663.231,-111.227,119.117,455.532,-155.547,166.921,218.159,-228.006,211.875,199.085,-14.2051,192.008,190.882
195,0,-45.7346,397.075,1142.56,-30.7516,122.479,1141.57,-248.265,297.386,1199.73,-238.54,193.068,1200.41,-41.7233,470.946,863.191,8.06545,459.207,673.779,-114.412,447.783,518.271,-292.975,387.504,387.722,-366.699,329.381,403.52,-243.181,381.653,237.405,-67.1806,74.5198,852.526,-71.1528,115.326,663.125,-116.572,119.065,455.624,-161.408,166.789,218.296,-233.816,211.748,199.34,-20.1056,191.712,190.718
196,0,-46.2401,396.933,1143.87,-31.8575,122.209,1141.48,-248.824,297.423,1200.86,-239.271,193.145,1201.12,-39.6618,471.184,865.412,13.3171,458.968,676.87,-106.435,447.766,518.963,-282.349,388.08,384.24,-357.235,329.7,396.104,-225.484,383.829,237.157,-70.4573,74.6726,852.551,-75.883,115.394,663.072,-122.04,119.083,455.765,-167.288,166.672,218.462,-239.66,211.636,199.627,-26.0328,191.447,190.557
197,0,-46.7587,396.823,1145.25,-33.0263,122.002,1141.39,-249.399,297.546,1202.07,-240.035,193.289,1201.87,-37.8786,471.411,867.651,17.9651,458.662,679.922,-98.5735,447.764,519.311,-271.214,388.776,379.729,-347.181,330.294,387.464,-207.121,385.812,236.311,-73.9017,74.9166,852.613,-80.7952,115.538,663.069,-127.627,119.165,455.95,-173.191,166.568,218.656,-245.543,211.535,199.949,-31.9888,191.214,190.397
198,0,-47.2794,396.743,1146.68,-34.2456,121.856,1141.31,-249.982,297.744,1203.36,-240.817,193.493,1202.67,-36.3649,471.629,869.89,21.9757,458.295,682.891,-90.83,447.793,519.311,-259.541,389.593,374.257,-336.452,331.154,377.707,-188.172,387.619,234.951,-77.4989,75.2472,852.702,-85.8855,115.749,663.114,-133.329,119.304,456.178,-179.118,166.477,218.879,-251.466,211.443,200.309,-37.9754,191.016,190.233
199,0,-47.7911,396.693,1148.15,-35.5032,121.772,1141.24,-250.567,298.007,1204.71,-241.607,193.749,1203.51,-35.1132,471.84,872.107,25.3182,457.872,685.729,-83.2121,447.864,518.97,-247.297,390.529,367.912,-324.969,332.258,366.961,-168.704,389.287,233.182,-81.229,75.6594,852.812,-91.1441,116.018,663.204,-139.138,119.491,456.444,-185.072,166.396,219.131,-257.433,211.357,200.71,-43.9943,190.849,190.064
200,0,-48.2835,396.672,1149.64,-36.787,121.748,1141.17,-251.151,298.325,1206.1,-242.394,194.051,1204.39,-34.118,472.048,874.28,27.9668,457.4,688.393,-75.7327,447.983,518.299,-234.457,391.575,360.808,-312.663,333.577,355.373,-148.777,390.858,231.122,-85.068,76.148,852.935,-96.5555,116.333,663.335,-145.043,119.721,456.747,-191.055,166.325,219.413,-263.442,211.275,201.156,-50.0467,190.713,189.891
201,0,-48.7463,396.681,1151.13,-38.085,121.781,1141.1,-251.726,298.693,1207.52,-243.169,194.395,1205.3,-33.376,472.258,876.385,29.9013,456.884,690.839,-68.4118,448.155,517.318,-221.004,392.719,353.076,-299.484,335.071,343.108,-128.442,392.377,228.894,-88.9894,76.707,853.067,-102.099,116.686,663.507,-151.029,119.984,457.083,-197.07,166.264,219.726,-269.492,211.196,201.651,-56.134,190.602,189.712
202,0,-49.17,396.72,1152.61,-39.3858,121.87,1141.03,-252.289,299.104,1208.93,-243.925,194.78,1206.21,-32.886,472.477,878.395,31.1096,456.329,693.029,-61.2769,448.378,516.049,-206.935,393.946,344.863,-285.403,336.701,330.347,-107.754,393.88,226.628,-92.965,77.3298,853.205,-107.748,117.066,663.714,-157.08,120.273,457.449,-203.118,166.212,220.072,-275.582,211.119,202.199,-62.2571,190.51,189.53
203,0,-49.5457,396.791,1154.04,-40.6782,122.012,1140.95,-252.834,299.558,1210.31,-244.657,195.208,1207.13,-32.6489,472.712,880.284,31.5885,455.742,694.927,-54.3634,448.648,514.523,-192.265,395.234,336.329,-270.423,338.421,317.284,-86.7726,395.393,224.443,-96.9661,78.0085,853.346,-113.473,117.464,663.955,-163.178,120.582,457.844,-209.202,166.171,220.453,-281.709,211.047,202.804,-68.417,190.434,189.347
204,0,-49.8652,396.896,1155.43,-41.9511,122.205,1140.86,-253.357,300.054,1211.65,-245.359,195.68,1208.02,-32.6663,472.971,882.023,31.345,455.132,696.505,-47.7148,448.958,512.773,-177.039,396.562,327.641,-254.584,340.187,304.122,-65.5743,396.922,222.449,-100.964,78.7344,853.488,-119.241,117.874,664.227,-169.302,120.904,458.263,-215.322,166.142,220.871,-287.869,210.983,203.467,-74.6143,190.367,189.163
205,0,-50.1214,397.037,1156.73,-43.1942,122.444,1140.76,-253.851,300.595,1212.91,-246.028,196.204,1208.88,-32.9404,473.261,883.584,30.3975,454.506,697.741,-41.3815,449.297,510.836,-161.331,397.903,318.965,-237.97,341.957,291.068,-44.2567,398.457,220.735,-104.93,79.4979,853.631,-125.017,118.288,664.524,-175.433,121.232,458.706,-221.479,166.128,221.326,-294.057,210.93,204.191,-80.8498,190.306,188.981
206,0,-50.3083,397.214,1157.95,-44.3971,122.729,1140.65,-254.31,301.187,1214.08,-246.662,196.785,1209.69,-33.4725,473.59,884.94,28.7761,453.873,698.621,-35.4193,449.655,508.751,-145.254,399.232,310.465,-220.714,343.691,278.328,-22.9466,399.968,219.366,-108.835,80.2887,853.773,-130.764,118.7,664.844,-181.549,121.562,459.167,-227.673,166.132,221.821,-300.27,210.895,204.976,-87.1239,190.246,188.801
207,0,-50.4211,397.431,1159.04,-45.5501,123.055,1140.52,-254.73,301.835,1215.13,-247.259,197.43,1210.42,-34.2613,473.964,886.066,26.523,453.243,699.137,-29.8877,450.019,506.554,-128.961,400.52,302.291,-203.001,345.355,266.097,-1.80438,401.413,218.377,-112.654,81.0964,853.911,-136.447,119.108,665.182,-187.632,121.889,459.645,-233.904,166.156,222.355,-306.504,210.884,205.82,-93.437,190.185,188.625
208,0,-50.4564,397.69,1160.01,-46.6439,123.421,1140.38,-255.105,302.548,1216.04,-247.817,198.149,1211.05,-35.3026,474.385,886.939,23.6922,452.626,699.292,-24.847,450.374,504.281,-112.644,401.739,294.577,-185.066,346.917,254.554,18.9733,402.739,217.773,-116.357,81.9109,854.042,-142.031,119.508,665.531,-193.661,122.208,460.136,-240.17,166.203,222.927,-312.755,210.902,206.721,-99.7895,190.122,188.453
209,0,-50.4121,397.991,1160.84,-47.67,123.825,1140.22,-255.429,303.333,1216.8,-248.335,198.948,1211.58,-36.587,474.853,887.542,20.3484,452.032,699.095,-20.3556,450.707,501.966,-96.5339,402.862,287.428,-167.192,348.351,243.853,39.155,403.892,217.525,-119.919,82.7228,854.16,-147.482,119.9,665.885,-199.619,122.516,460.635,-246.47,166.273,223.535,-319.022,210.952,207.674,-106.182,190.056,188.283
210,0,-50.2877,398.338,1161.51,-48.6202,124.265,1140.05,-255.698,304.198,1217.39,-248.812,199.834,1211.98,-38.0991,475.366,887.863,16.566,451.469,698.566,-16.4669,451.005,499.638,-80.8907,403.863,280.925,-149.696,349.633,234.119,58.4796,404.819,217.574,-123.315,83.5243,854.26,-152.771,120.282,666.237,-205.49,122.807,461.139,-252.8,166.364,224.175,-325.3,211.035,208.674,-112.614,189.987,188.116
211,0,-50.0844,398.733,1162.03,-49.4874,124.743,1139.85,-255.908,305.147,1217.81,-249.246,200.811,1212.24,-39.8171,475.915,887.896,12.4271,450.946,697.73,-13.2266,451.256,497.319,-65.9954,404.717,275.114,-132.921,350.747,225.437,76.6659,405.479,217.836,-126.518,84.3097,854.336,-157.867,120.659,666.579,-211.257,123.08,461.641,-259.156,166.471,224.843,-331.591,211.148,209.715,-119.086,189.913,187.95
212,0,-49.8045,399.179,1162.38,-50.2656,125.259,1139.65,-256.055,306.185,1218.04,-249.637,201.882,1212.35,-41.7116,476.49,887.644,8.01932,450.469,696.619,-10.6696,451.45,495.03,-52.1361,405.403,270.007,-117.216,351.68,217.854,93.4259,405.844,218.207,-129.507,85.0754,854.379,-162.746,121.031,666.903,-216.906,123.332,462.137,-265.534,166.588,225.531,-337.894,211.282,210.788,-125.598,189.834,187.783
213,0,-49.4522,399.677,1162.56,-50.9496,125.813,1139.42,-256.139,307.313,1218.08,-249.982,203.045,1212.31,-43.7463,477.076,887.118,3.43303,450.044,695.271,-8.81756,451.578,492.785,-39.5926,405.906,265.588,-102.92,352.424,211.378,108.482,405.899,218.572,-132.259,85.821,854.382,-167.381,121.406,667.199,-222.422,123.559,462.621,-271.929,166.704,226.234,-344.211,211.425,211.886,-132.15,189.748,187.615
214,0,-49.0327,400.232,1162.58,-51.5358,126.409,1139.19,-256.159,308.528,1217.94,-250.28,204.297,1212.11,-45.8781,477.656,886.335,-1.24121,449.672,693.73,-7.67769,451.633,490.593,-28.6193,406.212,261.811,-90.3391,352.976,205.975,121.585,405.651,218.815,-134.758,86.5484,854.336,-171.749,121.787,667.456,-227.79,123.761,463.088,-278.334,166.806,226.945,-350.542,211.557,213.002,-138.74,189.653,187.444
215,0,-48.5525,400.846,1162.45,-52.0219,127.05,1138.95,-256.117,309.827,1217.63,-250.529,205.631,1211.76,-48.0584,478.212,885.323,-5.91575,449.357,692.041,-7.24132,451.614,488.46,-19.4284,406.315,258.612,-79.7281,353.34,201.579,132.532,405.117,218.832,-136.986,87.2627,854.234,-175.826,122.184,667.664,-232.991,123.938,463.532,-284.743,166.877,227.659,-356.892,211.657,214.13,-145.368,189.547,187.271
216,0,-48.0192,401.521,1162.18,-52.4074,127.74,1138.7,-256.015,311.199,1217.15,-250.727,207.038,1211.25,-50.235,478.728,884.116,-10.5087,449.099,690.25,-7.48393,451.521,486.392,-12.175,406.213,255.911,-71.2749,353.522,198.097,141.187,404.331,218.534,-138.933,87.9714,854.069,-179.587,122.604,667.812,-238.008,124.091,463.948,-291.15,166.902,228.372,-363.263,211.697,215.267,-152.029,189.425,187.096
217,0,-47.4411,402.261,1161.78,-52.6933,128.482,1138.44,-255.859,312.635,1216.52,-250.872,208.505,1210.61,-52.3542,479.185,882.755,-14.9467,448.899,688.403,-8.36588,451.358,484.389,-6.94566,405.911,253.623,-65.0873,353.535,195.415,147.487,403.335,217.862,-140.588,88.6842,853.837,-183.004,123.055,667.889,-242.817,124.224,464.331,-297.549,166.863,229.083,-369.658,211.65,216.415,-158.721,189.286,186.92
218,0,-46.8272,403.068,1161.27,-52.8827,129.281,1138.19,-255.654,314.121,1215.76,-250.964,210.018,1209.85,-54.3636,479.574,881.284,-19.1672,448.755,686.546,-9.83407,451.134,482.454,-3.75149,405.422,251.667,-61.1866,353.397,193.412,151.457,402.175,216.79,-141.948,89.4123,853.533,-186.047,123.549,667.883,-247.395,124.342,464.679,-303.931,166.745,229.796,-376.079,211.49,217.58,-165.437,189.125,186.747
219,0,-46.1868,403.945,1160.66,-52.9805,130.141,1137.93,-255.407,315.641,1214.89,-251.003,211.561,1208.98,-56.2151,479.886,879.752,-23.1207,448.67,684.719,-11.8243,450.862,480.589,-2.52738,404.764,249.967,-59.5071,353.128,191.965,153.203,400.905,215.325,-143.007,90.1678,853.156,-188.682,124.092,667.782,-251.713,124.45,464.99,-310.289,166.536,230.517,-382.523,211.193,218.774,-172.172,188.941,186.578
220,0,-45.5296,404.891,1159.97,-52.9935,131.067,1137.68,-255.127,317.18,1213.93,-250.99,213.117,1208.02,-57.8682,480.122,878.204,-26.7716,448.643,682.96,-14.2644,450.557,478.797,-3.13748,403.963,248.464,-59.9031,352.753,190.957,152.909,399.573,213.509,-143.764,90.963,852.705,-190.871,124.692,667.577,-255.739,124.557,465.262,-316.613,166.228,231.26,-388.989,210.744,220.018,-178.918,188.732,186.418
221,0,-44.8652,405.907,1159.23,-52.9303,132.061,1137.44,-254.824,318.722,1212.91,-250.926,214.671,1207,-59.2924,480.29,876.687,-30.0995,448.679,681.297,-17.0777,450.239,477.08,-5.38635,403.05,247.112,-62.1608,352.299,190.284,150.821,398.229,211.413,-144.219,91.8095,852.181,-192.575,125.356,667.258,-259.439,124.67,465.497,-322.892,165.818,232.044,-395.467,210.133,221.339,-185.665,188.499,186.27
222,0,-44.2029,406.994,1158.46,-52.8013,133.125,1137.2,-254.506,320.25,1211.85,-250.816,216.206,1205.93,-60.4705,480.404,875.242,-33.0989,448.781,679.756,-20.1869,449.931,475.444,-9.03491,402.063,245.883,-66.0162,351.795,189.859,147.228,396.918,209.127,-144.37,92.7176,851.588,-193.748,126.085,666.815,-262.777,124.799,465.698,-329.113,165.311,232.892,-401.943,209.362,222.775,-192.405,188.243,186.136
223,0,-43.5519,408.148,1157.67,-52.6185,134.262,1136.98,-254.184,321.752,1210.77,-250.665,217.71,1204.84,-61.3999,480.488,873.902,-35.779,448.955,678.354,-23.5177,449.654,473.894,-13.8192,401.044,244.76,-71.1749,351.272,189.61,142.439,395.679,206.755,-144.216,93.6952,850.93,-194.346,126.881,666.243,-265.715,124.951,465.869,-335.258,164.717,233.835,-408.397,208.444,224.371,-199.128,187.969,186.018
224,0,-42.9211,409.368,1156.89,-52.3952,135.471,1136.76,-253.868,323.217,1209.71,-250.48,219.172,1203.75,-62.0942,480.569,872.694,-38.1622,449.208,677.099,-27.0027,449.434,472.433,-19.4699,400.035,243.74,-77.3333,350.76,189.484,136.763,394.547,204.399,-143.75,94.7477,850.211,-194.324,127.737,665.535,-268.216,125.132,466.016,-341.307,164.053,234.907,-414.8,207.405,226.179,-205.829,187.682,185.916
225,0,-42.3189,410.648,1156.13,-52.1458,136.751,1136.56,-253.568,324.638,1208.67,-250.269,220.585,1202.68,-62.5827,480.679,871.635,-40.283,449.549,675.995,-30.5837,449.29,471.065,-25.7304,399.081,242.823,-84.1981,350.285,189.443,130.483,393.549,202.156,-142.967,95.8768,849.437,-193.64,128.646,664.691,-270.244,125.346,466.149,-347.233,163.343,236.146,-421.113,206.282,228.261,-212.501,187.39,185.828
226,0,-41.7531,411.982,1155.39,-51.8857,138.099,1136.37,-253.292,326.011,1207.68,-250.043,221.945,1201.64,-62.9098,480.853,870.732,-42.1852,449.983,675.037,-34.2144,449.244,469.793,-32.3717,398.219,242.014,-91.5035,349.872,189.457,123.847,392.704,200.103,-141.858,97.0803,848.613,-192.257,129.595,663.711,-271.766,125.595,466.279,-353.007,162.615,237.592,-427.29,205.121,230.68,-219.145,187.102,185.751
227,0,-41.2315,413.366,1154.7,-51.6308,139.51,1136.2,-253.051,327.337,1206.76,-249.813,223.253,1200.65,-63.1326,481.123,869.983,-43.9204,450.519,674.214,-37.8616,449.308,468.616,-39.2022,397.482,241.315,-99.0229,349.54,189.51,117.05,392.023,198.295,-140.41,98.3521,847.748,-190.146,130.567,662.6,-272.753,125.875,466.419,-358.592,161.9,239.289,-433.274,203.978,233.502,-225.762,186.829,185.68
228,0,-40.7613,414.79,1154.06,-51.3969,140.979,1136.04,-252.851,328.62,1205.91,-249.595,224.512,1199.72,-63.3177,481.52,869.378,-45.5449,451.16,673.512,-41.5053,449.493,467.532,-46.0735,396.893,240.724,-106.577,349.301,189.588,110.237,391.508,196.765,-138.611,99.6819,846.847,-187.289,131.542,661.367,-273.184,126.181,466.583,-363.949,161.232,241.275,-439,202.915,236.794,-232.359,186.58,185.609
229,0,-40.3494,416.246,1153.48,-51.1999,142.498,1135.89,-252.701,329.867,1205.15,-249.4,225.732,1198.86,-63.537,482.065,868.898,-47.117,451.911,672.912,-45.1381,449.802,466.537,-52.8804,396.465,240.236,-114.033,349.159,189.683,103.502,391.152,195.518,-136.448,101.055,845.921,-183.679,132.497,660.025,-273.043,126.505,466.79,-369.032,160.644,243.59,-444.393,201.993,240.616,-238.946,186.365,185.534
230,0,-40.0026,417.725,1152.94,-51.0553,144.059,1135.75,-252.609,331.091,1204.47,-249.246,226.92,1198.06,-63.8634,482.774,868.522,-48.695,452.77,672.394,-48.7636,450.233,465.622,-59.5575,396.198,239.838,-121.309,349.113,189.788,96.8931,390.94,194.54,-133.91,102.454,844.98,-179.326,133.407,658.592,-272.322,126.833,467.06,-373.795,160.166,246.266,-449.377,201.275,245.018,-245.533,186.194,185.453
231,0,-39.7275,419.219,1152.46,-50.9774,145.651,1135.62,-252.579,332.303,1203.89,-249.146,228.092,1197.33,-64.3661,483.654,868.222,-50.3338,453.732,671.936,-52.3941,450.775,464.78,-66.073,396.083,239.513,-128.362,349.153,189.897,90.4253,390.851,193.8,-130.992,103.858,844.038,-174.254,134.251,657.092,-271.021,127.155,467.414,-378.188,159.824,249.33,-453.87,200.816,250.038,-252.128,186.073,185.368
232,0,-39.5306,420.718,1152.02,-50.9798,147.266,1135.5,-252.62,333.517,1203.39,-249.117,229.261,1196.66,-65.1058,484.701,867.972,-52.0833,454.791,671.516,-56.0481,451.413,464.001,-72.4215,396.1,239.242,-135.181,349.262,190.004,84.0874,390.859,193.258,-127.695,105.245,843.111,-168.505,135.004,655.553,-269.151,127.455,467.876,-382.16,159.639,252.8,-457.792,200.661,255.698,-258.733,186.006,185.288
233,0,-39.4184,422.213,1151.62,-51.0744,148.891,1135.38,-252.735,334.749,1202.98,-249.173,230.441,1196.05,-66.1312,485.903,867.745,-53.9859,455.934,671.116,-59.7469,452.128,463.274,-78.6156,396.224,239.006,-141.783,349.42,190.103,77.854,390.935,192.867,-124.027,106.59,842.22,-162.136,135.649,654.008,-266.729,127.721,468.471,-385.661,159.623,256.684,-461.07,200.843,261.996,-265.338,185.993,185.232
234,0,-39.3973,423.696,1151.25,-51.2718,150.515,1135.28,-252.931,336.011,1202.65,-249.329,231.647,1195.49,-67.476,487.24,867.516,-56.075,457.145,670.717,-63.5124,452.896,462.589,-84.6789,396.424,238.785,-148.199,349.605,190.191,71.6941,391.051,192.581,-120.011,107.872,841.387,-155.218,136.172,652.492,-263.782,127.941,469.223,-388.646,159.781,260.978,-463.638,201.379,268.906,-271.919,186.032,185.225
235,0,-39.4736,425.161,1150.9,-51.5808,152.128,1135.18,-253.213,337.315,1202.39,-249.595,232.891,1194.98,-69.1571,488.683,867.268,-58.3744,458.408,670.305,-67.3641,453.692,461.938,-90.6404,396.669,238.565,-154.47,349.792,190.264,65.5773,391.179,192.36,-115.681,109.068,840.638,-147.836,136.562,651.045,-260.341,128.107,470.156,-391.07,160.107,265.665,-465.444,202.267,276.378,-278.428,186.113,185.302
236,0,-39.6535,426.601,1150.56,-52.0081,153.719,1135.09,-253.585,338.668,1202.19,-249.982,234.184,1194.5,-71.1741,490.203,866.983,-60.8967,459.701,669.871,-71.3178,454.489,461.312,-96.5292,396.929,238.335,-160.636,349.964,190.32,59.4786,391.297,192.17,-111.084,110.16,839.999,-140.082,136.816,649.709,-256.444,128.213,471.294,-392.896,160.589,270.714,-466.453,203.488,284.333,-284.792,186.226,185.509
237,0,-39.943,428.01,1150.22,-52.5588,155.277,1135.01,-254.051,340.077,1202.04,-250.499,235.532,1194.05,-73.5105,491.765,866.654,-63.6446,461.002,669.408,-75.3839,455.262,460.706,-102.372,397.179,238.089,-166.737,350.101,190.36,53.3802,391.387,191.986,-106.281,111.133,839.498,-132.053,136.937,648.524,-252.134,128.258,472.654,-394.092,161.205,276.082,-466.647,205.003,292.667,-290.911,186.354,185.893
238,0,-40.3477,429.386,1149.87,-53.2359,156.794,1134.94,-254.616,341.541,1201.93,-251.151,236.94,1193.62,-76.1348,493.335,866.276,-66.6107,462.29,668.912,-79.5668,455.989,460.117,-108.192,397.401,237.827,-172.806,350.194,190.383,47.2719,391.438,191.794,-101.348,111.975,839.16,-123.848,136.933,647.532,-247.454,128.246,474.25,-394.633,161.928,281.711,-466.031,206.757,301.25,-296.654,186.48,186.509
239,0,-40.8727,430.724,1149.51,-54.0403,158.261,1134.89,-255.283,343.059,1201.86,-251.94,238.407,1193.21,-79.0041,494.88,865.85,-69.7795,463.543,668.385,-83.8654,456.651,459.541,-114.007,397.581,237.553,-178.868,350.235,190.394,41.1502,391.442,191.586,-96.3654,112.68,839.003,-115.562,136.817,646.77,-242.449,128.183,476.089,-394.5,162.724,287.529,-464.626,208.682,309.934,-301.866,186.583,187.406
240,0,-41.5227,432.025,1149.13,-54.9713,159.672,1134.85,-256.052,344.622,1201.82,-252.867,239.93,1192.82,-82.0674,496.373,865.382,-73.1289,464.742,667.828,-88.2732,457.234,458.979,-119.828,397.713,237.273,-184.939,350.226,190.396,35.0161,391.398,191.36,-91.4252,113.245,839.045,-107.284,136.605,646.271,-237.161,128.08,478.17,-393.679,163.558,293.452,-462.472,210.7,318.556,-306.37,186.644,188.627
241,0,-42.3013,433.286,1148.74,-56.0262,161.021,1134.84,-256.926,346.22,1201.8,-253.928,241.5,1192.45,-85.2694,497.787,864.878,-76.6325,465.867,667.249,-92.78,457.727,458.433,-125.666,397.798,236.999,-191.03,350.169,190.394,28.8737,391.31,191.12,-86.6193,113.672,839.292,-99.0932,136.317,646.063,-231.632,127.948,480.484,-392.164,164.394,299.388,-459.622,212.731,326.943,-309.977,186.643,190.204
242,0,-43.2114,434.508,1148.32,-57.2009,162.305,1134.85,-257.905,347.84,1201.8,-255.118,243.107,1192.11,-88.5542,499.104,864.349,-80.2619,466.906,666.653,-97.3729,458.125,457.904,-131.523,397.839,236.74,-197.142,350.072,190.393,22.7279,391.185,190.872,-82.0382,113.964,839.746,-91.0575,135.973,646.168,-225.897,127.803,483.009,-389.952,165.197,305.234,-456.134,214.694,334.917,-312.494,186.562,192.151
243,0,-44.2549,435.691,1147.9,-58.4895,163.519,1134.91,-258.985,349.468,1201.82,-256.429,244.737,1191.8,-91.8694,500.31,863.806,-83.9893,467.845,666.051,-102.038,458.429,457.396,-137.4,397.844,236.506,-203.275,349.946,190.397,16.5835,391.03,190.621,-77.7655,114.13,840.401,-83.2318,135.594,646.602,-219.99,127.657,485.717,-387.043,165.936,310.881,-452.074,216.518,342.306,-313.737,186.39,194.461
244,0,-45.4324,436.836,1147.47,-59.8849,164.664,1135,-260.164,351.086,1201.85,-257.851,246.376,1191.53,-95.1688,501.395,863.26,-87.7899,468.676,665.45,-106.762,458.641,456.912,-143.295,397.819,236.303,-209.422,349.8,190.412,10.4436,390.853,190.374,-73.8736,114.18,841.243,-75.6583,135.198,647.371,-213.936,127.523,488.568,-383.442,166.585,316.218,-447.499,218.14,348.945,-313.544,186.114,197.108
245,0,-46.7433,437.945,1147.04,-61.3789,165.738,1135.14,-261.437,352.678,1201.89,-259.371,248.008,1191.32,-98.4153,502.354,862.721,-91.6433,469.396,664.858,-111.535,458.768,456.456,-149.205,397.775,236.137,-215.577,349.644,190.438,4.30967,390.664,190.135,-70.42,114.125,842.255,-68.3678,134.801,648.475,-207.758,127.409,491.514,-379.154,167.124,321.133,-442.462,219.518,354.687,-311.782,185.729,200.04
246,0,-48.1857,439.017,1146.62,-62.9621,166.742,1135.33,-262.796,354.23,1201.96,-260.977,249.615,1191.17,-101.583,503.187,862.196,-95.5354,470.003,664.286,-116.346,458.821,456.031,-155.125,397.716,236.008,-221.732,349.488,190.477,-1.81846,390.47,189.907,-67.4446,113.977,843.415,-61.3814,134.416,649.907,-201.473,127.323,494.497,-374.185,167.542,325.517,-437.002,220.622,359.401,-308.36,185.23,203.187
247,0,-49.7562,440.053,1146.21,-64.6245,167.678,1135.59,-264.233,355.726,1202.04,-262.655,251.184,1191.09,-104.656,503.896,861.694,-99.4591,470.5,663.738,-121.194,458.809,455.639,-161.049,397.65,235.915,-227.879,349.337,190.53,-7.9425,390.277,189.692,-64.9681,113.75,844.704,-54.713,134.053,651.653,-195.094,127.265,497.458,-368.543,167.832,329.268,-431.141,221.446,362.981,-303.231,184.618,206.465
248,0,-51.4502,441.052,1145.84,-66.3551,168.547,1135.91,-265.738,357.157,1202.15,-264.391,252.7,1191.1,-107.633,504.487,861.218,-103.415,470.89,663.223,-126.076,458.744,455.282,-166.973,397.578,235.855,-234.013,349.194,190.595,-14.0651,390.09,189.49,-62.9917,113.455,846.102,-48.3721,133.718,653.692,-188.629,127.234,500.331,-362.236,167.995,332.293,-424.885,221.996,365.346,-296.394,183.89,209.776
249,0,-53.2615,442.013,1145.51,-68.1428,169.352,1136.3,-267.298,358.513,1202.29,-266.17,254.15,1191.21,-110.522,504.965,860.772,-107.41,471.181,662.744,-130.998,458.639,454.963,-172.894,397.502,235.821,-240.129,349.062,190.67,-20.1895,389.91,189.299,-61.4979,113.105,847.59,-42.3668,133.412,655.997,-182.087,127.222,503.05,-355.27,168.038,334.515,-418.223,222.299,366.441,-287.894,183.049,213.021
250,0,-55.1826,442.934,1145.22,-69.9759,170.095,1136.77,-268.903,359.789,1202.47,-267.978,255.526,1191.42,-113.341,505.338,860.355,-111.457,471.382,662.307,-135.968,458.505,454.681,-178.812,397.42,235.807,-246.227,348.939,190.751,-26.319,389.74,189.12,-60.4534,112.712,849.157,-36.706,133.136,658.539,-175.471,127.219,505.551,-347.653,167.97,335.869,-411.129,222.388,366.238,-277.817,182.093,216.102
251,0,-57.2048,443.814,1145,-71.8423,170.779,1137.31,-270.538,360.982,1202.68,-269.804,256.82,1191.75,-116.118,505.614,859.969,-115.576,471.501,661.912,-140.995,458.351,454.437,-184.73,397.332,235.809,-252.305,348.822,190.834,-32.4567,389.578,188.951,-59.8116,112.286,850.793,-31.4019,132.885,661.28,-168.789,127.213,507.775,-339.389,167.806,336.313,-403.565,222.307,364.737,-266.28,181.022,218.929
252,0,-59.3179,444.647,1144.83,-73.7301,171.407,1137.93,-272.189,362.093,1202.94,-271.635,258.027,1192.19,-118.884,505.801,859.611,-119.787,471.55,661.562,-146.092,458.185,454.231,-190.652,397.234,235.821,-258.369,348.709,190.918,-38.6056,389.425,188.791,-59.5167,111.836,852.496,-26.4709,132.656,664.18,-162.046,127.187,509.668,-330.483,167.557,335.821,-395.483,222.099,361.962,-253.426,179.837,221.428
253,0,-61.5109,445.432,1144.73,-75.6273,171.979,1138.62,-273.845,363.125,1203.25,-273.461,259.145,1192.75,-121.677,505.906,859.28,-124.114,471.538,661.258,-151.274,458.015,454.063,-196.587,397.124,235.842,-264.421,348.596,191,-44.7684,389.278,188.64,-59.508,111.369,854.263,-21.9342,132.443,667.197,-155.25,127.129,511.188,-320.935,167.238,334.392,-386.832,221.805,357.961,-239.41,178.538,223.54
254,0,-63.7714,446.162,1144.7,-77.5217,172.497,1139.39,-275.491,364.08,1203.61,-275.273,260.173,1193.42,-124.533,505.935,858.973,-128.578,471.474,660.997,-156.553,457.846,453.931,-202.546,397.001,235.871,-270.47,348.48,191.079,-50.9476,389.137,188.498,-59.7234,110.891,856.095,-17.8174,132.239,670.284,-148.414,127.024,512.301,-310.748,166.858,332.046,-377.557,221.461,352.803,-224.392,177.131,225.228
255,0,-66.0866,446.835,1144.74,-79.4015,172.964,1140.22,-277.117,364.965,1204.03,-277.062,261.113,1194.19,-127.489,505.895,858.687,-133.199,471.368,660.781,-161.942,457.68,453.836,-208.541,396.864,235.91,-276.523,348.359,191.156,-57.1459,389.001,188.365,-60.1038,110.403,857.993,-14.1493,132.037,673.392,-141.55,126.861,512.987,-299.92,166.424,328.825,-367.61,221.091,346.581,-208.53,175.626,226.474
256,0,-68.4425,447.446,1144.83,-81.255,173.38,1141.11,-278.711,365.782,1204.5,-278.822,261.965,1195.06,-130.575,505.792,858.422,-137.992,471.226,660.606,-167.451,457.519,453.778,-214.584,396.714,235.963,-282.59,348.232,191.235,-63.366,388.868,188.239,-60.5956,109.908,859.956,-10.9602,131.834,676.474,-134.678,126.632,513.24,-288.452,165.942,324.793,-356.947,220.711,339.403,-191.969,174.036,227.284
257,0,-70.8249,447.99,1144.98,-83.0706,173.744,1142.04,-280.266,366.536,1205.02,-280.547,262.732,1196.01,-133.817,505.629,858.174,-142.969,471.053,660.47,-173.087,457.362,453.755,-220.685,396.553,236.034,-288.681,348.101,191.321,-69.6107,388.738,188.121,-61.1534,109.402,861.978,-8.27918,131.624,679.479,-127.819,126.333,513.065,-276.344,165.411,320.035,-345.538,220.321,331.394,-174.842,172.386,227.682
258,0,-73.2192,448.464,1145.18,-84.8373,174.058,1143.02,-281.773,367.23,1205.59,-282.23,263.414,1197.03,-137.235,505.41,857.944,-148.131,470.855,660.37,-178.855,457.208,453.769,-226.853,396.383,236.126,-294.805,347.967,191.419,-75.8826,388.612,188.008,-61.7409,108.884,864.05,-6.13207,131.403,682.359,-120.997,125.964,512.484,-263.605,164.831,314.651,-333.365,219.916,322.695,-157.268,170.701,227.71
259,0,-75.6105,448.865,1145.41,-86.5441,174.321,1144.03,-283.228,367.863,1206.21,-283.869,264.011,1198.11,-140.838,505.138,857.73,-153.476,470.632,660.302,-184.753,457.054,453.82,-233.092,396.209,236.245,-300.97,347.834,191.54,-82.1841,388.491,187.898,-62.3323,108.347,866.156,-4.53842,131.17,685.071,-114.24,125.527,511.529,-250.247,164.197,308.759,-320.426,219.48,313.455,-139.347,169.017,227.427
260,0,-77.9842,449.191,1145.65,-88.1806,174.533,1145.05,-284.628,368.432,1206.87,-285.457,264.523,1199.23,-144.627,504.813,857.532,-158.994,470.387,660.263,-190.78,456.897,453.908,-239.401,396.033,236.392,-307.183,347.706,191.692,-88.5172,388.376,187.789,-62.9112,107.786,868.276,-3.50935,130.925,687.571,-107.58,125.03,510.243,-236.295,163.507,302.49,-306.742,218.996,303.834,-121.171,167.369,226.899
261,0,-80.3257,449.441,1145.9,-89.7367,174.693,1146.07,-285.97,368.933,1207.55,-286.991,264.947,1200.36,-148.595,504.439,857.351,-164.666,470.118,660.249,-196.926,456.731,454.035,-245.776,395.858,236.568,-313.449,347.586,191.884,-94.883,388.269,187.679,-63.4708,107.194,870.382,-3.04566,130.668,689.824,-101.047,124.483,508.68,-221.787,162.757,295.981,-292.351,218.443,294,-102.819,165.793,226.202
262,0,-82.6208,449.614,1146.13,-91.2027,174.801,1147.07,-287.256,369.357,1208.26,-288.466,265.277,1201.49,-152.725,504.015,857.186,-170.469,469.823,660.255,-203.181,456.553,454.201,-252.207,395.686,236.772,-319.77,347.476,192.124,-101.281,388.171,187.563,-64.0119,106.565,872.443,-3.13651,130.401,691.801,-94.6749,123.896,506.898,-206.779,161.947,289.374,-277.317,217.808,284.12,-84.3703,164.323,225.41
263,0,-84.8562,449.711,1146.33,-92.5698,174.857,1148.05,-288.488,369.693,1208.97,-289.877,265.507,1202.59,-156.994,503.541,857.037,-176.375,469.5,660.277,-209.53,456.357,454.406,-258.682,395.518,237.001,-326.146,347.378,192.422,-107.712,388.082,187.441,-64.542,105.894,874.426,-3.75894,130.128,693.479,-88.498,123.281,504.96,-191.346,161.08,282.81,-261.727,217.081,274.361,-65.905,162.986,224.596
264,0,-87.0188,449.735,1146.49,-93.8293,174.861,1148.98,-289.667,369.929,1209.67,-291.219,265.629,1203.66,-161.37,503.018,856.904,-182.349,469.146,660.312,-215.956,456.138,454.652,-265.185,395.35,237.25,-332.574,347.289,192.783,-114.172,388.003,187.308,-65.0737,105.176,876.295,-4.87813,129.854,694.844,-82.5499,122.651,502.93,-175.585,160.163,276.422,-245.694,216.262,264.887,-47.51,161.802,223.822
265,0,-89.0969,449.688,1146.58,-94.9736,174.812,1149.86,-290.798,370.051,1210.36,-292.486,265.633,1204.68,-165.819,502.447,856.785,-188.356,468.756,660.355,-222.437,455.894,454.937,-271.7,395.181,237.517,-339.048,347.206,193.211,-120.66,387.934,187.166,-65.6227,104.413,878.013,-6.44848,129.583,695.892,-76.8644,122.018,500.867,-159.617,159.208,270.334,-229.354,215.36,255.849,-29.2836,160.781,223.134
266,0,-91.0792,449.574,1146.59,-95.9956,174.712,1150.66,-291.885,370.042,1211,-293.672,265.509,1205.61,-170.301,501.828,856.681,-194.357,468.329,660.403,-228.952,455.621,455.262,-278.211,395.006,237.797,-345.561,347.124,193.71,-127.173,387.871,187.013,-66.2067,103.606,879.549,-8.41533,129.323,696.624,-71.475,121.391,498.826,-143.583,158.229,264.651,-212.871,214.393,247.385,-11.3377,159.927,222.562
267,0,-92.9556,449.396,1146.52,-96.8893,174.561,1151.39,-292.93,369.889,1211.59,-294.772,265.247,1206.46,-174.774,501.162,856.587,-200.313,467.86,660.452,-235.475,455.317,455.623,-284.706,394.819,238.087,-352.105,347.035,194.28,-133.709,387.815,186.849,-66.844,102.761,880.871,-10.7174,129.079,697.051,-66.4147,120.781,496.853,-127.648,157.244,259.457,-196.426,213.385,239.615,6.20091,159.232,222.115
268,0,-94.7172,449.16,1146.34,-97.6495,174.359,1152.03,-293.938,369.575,1212.12,-295.779,264.836,1207.22,-179.197,500.452,856.502,-206.185,467.349,660.499,-241.978,454.981,456.018,-291.174,394.615,238.388,-358.672,346.931,194.92,-140.265,387.76,186.678,-67.5513,101.887,881.954,-13.2892,128.858,697.191,-61.7164,120.196,494.984,-111.992,156.274,254.813,-180.223,212.366,232.634,23.1909,158.687,221.777
269,0,-96.3559,448.87,1146.05,-98.2722,174.108,1152.58,-294.911,369.088,1212.56,-296.686,264.267,1207.86,-183.527,499.699,856.423,-211.934,466.794,660.543,-248.433,454.614,456.444,-297.61,394.389,238.701,-365.253,346.805,195.628,-146.841,387.704,186.501,-68.3429,100.999,882.779,-16.0645,128.666,697.066,-57.4129,119.645,493.243,-96.8102,155.342,250.752,-164.479,211.367,226.506,39.4786,158.278,221.515
270,0,-97.8647,448.53,1145.65,-98.7543,173.807,1153.02,-295.85,368.418,1212.91,-297.489,263.534,1208.38,-187.726,498.908,856.345,-217.525,466.196,660.581,-254.811,454.218,456.894,-304.012,394.137,239.032,-371.841,346.65,196.403,-153.437,387.644,186.321,-69.2289,100.111,883.333,-18.9786,128.509,696.703,-53.537,119.135,491.641,-82.3047,154.468,247.278,-149.419,210.418,221.267,54.9021,157.992,221.279
271,0,-99.2375,448.144,1145.14,-99.0941,173.457,1153.36,-296.755,367.557,1213.15,-298.181,262.63,1208.78,-191.755,498.082,856.266,-222.924,465.556,660.612,-261.08,453.794,457.363,-310.383,393.858,239.388,-378.43,346.463,197.243,-160.055,387.576,186.139,-70.2135,99.2427,883.609,-21.9716,128.391,696.129,-50.1216,118.672,490.179,-68.6803,153.673,244.371,-135.269,209.545,216.915,69.2954,157.817,221.006
272,0,-100.469,447.715,1144.51,-99.2914,173.06,1153.6,-297.624,366.501,1213.28,-298.759,261.553,1209.05,-195.581,497.225,856.181,-228.098,464.877,660.635,-267.21,453.348,457.844,-316.729,393.553,239.779,-385.015,346.244,198.144,-166.698,387.498,185.96,-71.2943,98.4128,883.61,-24.9903,128.316,695.375,-47.1994,118.264,488.845,-56.1364,152.978,241.986,-122.249,208.771,213.417,82.4948,157.746,220.63
273,0,-101.556,447.245,1143.78,-99.3472,172.615,1153.73,-298.454,365.249,1213.3,-299.219,260.303,1209.2,-199.174,496.342,856.087,-233.02,464.162,660.651,-273.171,452.883,458.329,-323.058,393.224,240.215,-391.594,345.995,199.106,-173.367,387.41,185.782,-72.4608,97.6413,883.344,-27.9902,128.284,694.469,-44.8022,117.916,487.619,-44.8603,152.398,240.057,-110.564,208.111,210.705,94.345,157.775,220.088
274,0,-102.495,446.736,1142.95,-99.2638,172.121,1153.77,-299.24,363.807,1213.19,-299.558,258.886,1209.23,-202.507,495.437,855.981,-237.664,463.415,660.66,-278.935,452.405,458.811,-329.378,392.88,240.707,-398.166,345.724,200.13,-180.068,387.311,185.608,-73.6942,96.9466,882.826,-30.9369,128.296,693.438,-42.9597,117.635,486.473,-35.0194,151.946,238.503,-100.393,207.577,208.681,104.706,157.903,219.326
275,0,-103.282,446.186,1142.04,-99.0451,171.578,1153.72,-299.975,362.182,1212.98,-299.776,257.307,1209.14,-205.558,494.513,855.861,-242.008,462.64,660.663,-284.474,451.917,459.285,-335.696,392.528,241.267,-404.73,345.442,201.217,-186.802,387.201,185.437,-74.9674,96.3446,882.076,-33.8061,128.347,692.307,-41.6979,117.426,485.377,-26.7542,151.634,237.236,-91.8823,207.173,207.228,113.462,158.131,218.309
276,0,-103.918,445.594,1141.06,-98.6966,170.985,1153.59,-300.652,360.388,1212.66,-299.872,255.578,1208.95,-208.31,493.573,855.727,-246.034,461.841,660.66,-289.765,451.426,459.744,-342.016,392.181,241.905,-411.287,345.162,202.369,-193.572,387.084,185.267,-76.2461,95.8474,881.124,-36.5842,128.433,691.098,-41.0375,117.292,484.298,-20.1714,151.466,236.165,-85.1386,206.897,206.214,120.523,158.456,217.023
277,0,-104.4,444.956,1140.03,-98.2251,170.339,1153.39,-301.262,358.441,1212.23,-299.848,253.711,1208.66,-210.749,492.619,855.577,-249.724,461.021,660.654,-294.788,450.934,460.184,-348.34,391.85,242.627,-417.839,344.902,203.593,-200.377,386.96,185.098,-77.4901,95.4616,879.999,-39.267,128.543,689.832,-40.9917,117.236,483.206,-15.3384,151.443,235.204,-80.223,206.744,205.503,125.835,158.875,215.477
278,0,-104.729,444.268,1138.97,-97.6385,169.639,1153.13,-301.795,356.361,1211.72,-299.707,251.724,1208.3,-212.866,491.65,855.414,-253.064,460.185,660.646,-299.527,450.446,460.605,-354.666,391.548,243.44,-424.386,344.679,204.895,-207.215,386.834,184.927,-78.6567,95.1873,878.738,-41.8584,128.667,688.526,-41.5639,117.255,482.075,-12.2784,151.561,234.276,-77.1468,206.706,204.964,129.386,159.377,213.703
279,0,-104.907,443.524,1137.91,-96.9465,168.882,1152.83,-302.243,354.172,1211.14,-299.454,249.635,1207.86,-214.655,490.668,855.24,-256.044,459.334,660.638,-303.971,449.965,461.006,-360.985,391.29,244.349,-430.93,344.51,206.285,-214.084,386.707,184.754,-79.7029,95.0174,877.379,-44.369,128.792,687.199,-42.7464,117.347,480.885,-10.9684,151.811,233.322,-75.8714,206.768,204.483,131.201,159.948,211.755
280,0,-104.934,442.716,1136.86,-96.1595,168.064,1152.49,-302.597,351.898,1210.51,-299.096,247.464,1207.38,-216.113,489.669,855.058,-258.654,458.473,660.633,-308.112,449.493,461.39,-367.289,391.085,245.356,-437.472,344.41,207.774,-220.976,386.582,184.577,-80.5903,94.9371,875.96,-46.8137,128.901,685.864,-44.5184,117.504,479.627,-11.3385,152.179,232.299,-76.3092,206.916,203.969,131.353,160.567,209.697
281,0,-104.816,441.837,1135.86,-95.2891,167.183,1152.14,-302.847,349.565,1209.85,-298.638,245.233,1206.87,-217.24,488.651,854.87,-260.883,457.602,660.631,-311.945,449.031,461.763,-373.564,390.943,246.466,-444.01,344.393,209.375,-227.884,386.459,184.396,-81.2878,94.9238,874.522,-49.2097,128.978,684.539,-46.8458,117.715,478.298,-13.2743,152.644,231.185,-78.3286,207.13,203.356,129.951,161.208,207.607
282,0,-104.555,440.878,1134.92,-94.3477,166.233,1151.79,-302.986,347.202,1209.16,-298.091,242.964,1206.34,-218.039,487.611,854.683,-262.723,456.726,660.633,-315.469,448.58,462.131,-379.796,390.872,247.683,-450.543,344.469,211.106,-234.797,386.34,184.212,-81.7755,94.9476,873.102,-51.5741,129.007,683.239,-49.6812,117.966,476.906,-16.6223,153.182,229.977,-81.7607,207.389,202.613,127.145,161.845,205.56
283,0,-104.157,439.83,1134.06,-93.3486,165.213,1151.44,-303.009,344.835,1208.49,-297.464,240.679,1205.82,-218.516,486.545,854.501,-264.165,455.846,660.64,-318.683,448.141,462.505,-385.969,390.873,249.013,-457.063,344.641,212.985,-241.706,386.223,184.026,-82.0474,94.9734,871.735,-53.9223,128.971,681.98,-52.9653,118.241,475.47,-21.197,153.767,228.69,-86.4087,207.671,201.736,123.109,162.45,203.626
284,0,-103.631,438.685,1133.31,-92.3052,164.117,1151.11,-302.912,342.49,1207.84,-296.767,238.399,1205.32,-218.675,485.45,854.326,-265.195,454.969,660.651,-321.584,447.715,462.893,-392.067,390.948,250.465,-463.565,344.911,215.037,-248.599,386.107,183.841,-82.1133,94.962,870.455,-56.2658,128.857,680.781,-56.6287,118.521,474.013,-26.7915,154.369,227.355,-92.0589,207.952,200.748,118.04,163,201.864
285,0,-102.983,437.435,1132.68,-91.2312,162.945,1150.82,-302.695,340.191,1207.24,-296.011,236.142,1204.85,-218.523,484.325,854.163,-265.799,454.098,660.663,-324.17,447.302,463.307,-398.071,391.091,252.051,-470.032,345.273,217.285,-255.468,385.989,183.658,-81.9982,94.8732,869.286,-58.6121,128.653,679.655,-60.595,118.786,472.566,-33.1883,154.959,226.01,-98.4922,208.212,199.69,112.142,163.473,200.316
286,0,-102.226,436.074,1132.19,-90.1407,161.692,1150.55,-302.357,337.959,1206.69,-295.208,233.927,1204.43,-218.066,483.168,854.014,-265.958,453.241,660.673,-326.434,446.903,463.757,-403.961,391.296,253.784,-476.448,345.719,219.761,-262.304,385.865,183.479,-81.7424,94.6685,868.25,-60.9635,128.351,678.62,-64.785,119.019,471.159,-40.1717,155.509,224.699,-105.496,208.429,198.616,105.62,163.858,199.009
287,0,-101.371,434.598,1131.83,-89.047,160.359,1150.33,-301.904,335.81,1206.22,-294.37,231.767,1204.07,-217.308,481.981,853.879,-265.65,452.408,660.674,-328.362,446.52,464.254,-409.715,391.552,255.682,-482.783,346.235,222.498,-269.102,385.731,183.305,-81.3981,94.3145,867.359,-63.3175,127.947,677.686,-69.1201,119.201,469.826,-47.5386,155.994,223.465,-112.872,208.589,197.583,98.6636,164.147,197.95
288,0,-100.432,433.004,1131.63,-87.9636,158.943,1150.15,-301.342,333.76,1205.82,-293.508,229.674,1203.78,-216.252,480.766,853.757,-264.846,451.609,660.659,-329.936,446.155,464.807,-415.305,391.848,257.762,-489.003,346.805,225.533,-275.861,385.583,183.135,-81.0265,93.7855,866.618,-65.6678,127.441,676.865,-73.5271,119.318,468.595,-55.1085,156.395,222.346,-120.451,208.68,196.644,91.4414,164.34,197.129
289,0,-99.4233,431.291,1131.57,-86.9029,157.447,1150.01,-300.682,331.817,1205.51,-292.635,227.656,1203.56,-214.897,479.53,853.646,-263.514,450.856,660.618,-331.132,445.813,465.424,-420.696,392.171,260.045,-495.058,347.41,228.907,-282.584,385.414,182.966,-80.6937,93.0662,866.023,-68.0058,126.838,676.159,-77.9415,119.358,467.488,-62.7306,156.7,221.372,-128.09,208.694,195.842,84.095,164.446,196.525
290,0,-98.3628,429.464,1131.65,-85.877,155.872,1149.91,-299.936,329.985,1205.29,-291.763,225.717,1203.41,-213.24,478.28,853.541,-261.619,450.163,660.542,-331.917,445.497,466.112,-425.846,392.508,262.55,-500.891,348.029,232.665,-289.276,385.219,182.794,-80.4656,92.1531,865.562,-70.3218,126.145,675.568,-82.3112,119.315,466.522,-70.2878,156.901,220.562,-135.681,208.633,195.205,76.7347,164.475,196.107
291,0,-97.2682,427.527,1131.87,-84.8967,154.221,1149.84,-299.121,328.265,1205.16,-290.902,223.859,1203.33,-211.273,477.027,853.436,-259.121,449.543,660.418,-332.255,445.214,466.877,-430.702,392.846,265.296,-506.428,348.642,236.853,-295.948,384.991,182.615,-80.4044,91.0551,865.217,-72.6074,125.372,675.087,-86.5977,119.186,465.702,-77.6986,156.999,219.921,-143.151,208.5,194.745,69.4388,164.441,195.837
292,0,-96.1586,425.489,1132.22,-83.972,152.5,1149.79,-298.254,326.652,1205.1,-290.064,222.08,1203.31,-208.984,475.781,853.325,-255.981,449.009,660.237,-332.103,444.968,467.725,-435.202,393.173,268.301,-511.587,349.229,241.519,-302.612,384.723,182.423,-80.5647,89.7928,864.961,-74.857,124.532,674.701,-90.7779,118.971,465.027,-84.9145,157.001,219.444,-150.457,208.304,194.458,62.2558,164.363,195.675
293,0,-95.0536,423.363,1132.66,-83.1116,150.716,1149.76,-297.354,325.139,1205.11,-289.259,220.375,1203.35,-206.36,474.557,853.201,-252.16,448.573,659.989,-331.417,444.765,468.659,-439.273,393.481,271.58,-516.275,349.769,246.711,-309.28,384.41,182.218,-80.9905,88.3966,864.766,-77.0692,123.636,674.394,-94.8429,118.678,464.483,-91.9167,156.919,219.116,-157.582,208.06,194.326,55.2083,164.256,195.585
294,0,-93.9734,421.163,1133.2,-82.3232,148.875,1149.72,-296.444,323.711,1205.17,-288.497,218.739,1203.43,-203.382,473.367,853.059,-247.626,448.243,659.665,-330.152,444.608,469.683,-442.837,393.763,275.149,-520.389,350.245,252.471,-315.96,384.044,182.003,-81.7143,86.9038,864.597,-79.2477,122.696,674.143,-98.7975,118.312,464.053,-98.7105,156.768,218.911,-164.531,207.783,194.321,48.2984,164.134,195.532
295,0,-92.9379,418.907,1133.8,-81.6129,146.988,1149.66,-295.544,322.356,1205.27,-287.787,217.161,1203.55,-200.034,472.227,852.892,-242.351,448.027,659.263,-328.264,444.502,470.803,-445.81,394.012,279.019,-523.827,350.64,258.837,-322.654,383.623,181.789,-82.7559,85.3553,864.423,-81.4014,121.722,673.921,-102.657,117.885,463.709,-105.318,156.567,218.801,-171.323,207.489,194.407,41.5137,164.009,195.487
296,0,-91.9665,416.615,1134.44,-80.986,145.066,1149.58,-294.678,321.056,1205.39,-287.137,215.633,1203.67,-196.298,471.148,852.7,-236.318,447.926,658.783,-325.714,444.447,472.022,-448.109,394.224,283.2,-526.487,350.937,265.833,-329.353,383.145,181.599,-84.1231,83.7914,864.212,-83.5444,120.723,673.703,-106.444,117.408,463.423,-111.774,156.335,218.753,-177.986,207.194,194.548,34.8332,163.891,195.428
297,0,-91.0776,414.309,1135.1,-80.4462,143.118,1149.46,-293.867,319.793,1205.5,-286.554,214.143,1203.8,-192.16,470.144,852.482,-229.523,447.937,658.231,-322.471,444.441,473.345,-449.658,394.398,287.701,-528.278,351.124,273.469,-336.034,382.61,181.467,-85.8127,82.2485,863.937,-85.6945,119.703,673.46,-110.186,116.891,463.165,-118.114,156.087,218.736,-184.552,206.913,194.706,28.232,163.784,195.338
298,0,-90.2882,412.01,1135.76,-79.996,141.159,1149.27,-293.13,318.55,1205.59,-286.046,212.683,1203.91,-187.612,469.223,852.244,-221.975,448.053,657.619,-318.513,444.48,474.778,-450.391,394.53,292.524,-529.122,351.187,281.735,-342.652,382.024,181.44,-87.8116,80.7564,863.578,-87.8719,118.665,673.169,-113.913,116.344,462.904,-124.378,155.84,218.721,-191.051,206.657,194.853,21.6862,163.688,195.207
