Trajectories
100
,,Subj:LASI,,,Subj:RASI,,,Subj:LPSI,,,Subj:RPSI,,,Subj:LTHI,,,Subj:LKNE,,,Subj:LTIB,,,Subj:LANK,,,Subj:LHEE,,,Subj:LTOE,,,Subj:RTHI,,,Subj:RKNE,,,Subj:RTIB,,,Subj:RANK,,,Subj:RHEE,,,Subj:RTOE,,,
Frame,Sub Frame,X,Y,Z,X,Y,Z,X,Y,Z,X,Y,Z,X,Y,Z,X,Y,Z,X,Y,Z,X,Y,Z,X,Y,Z,X,Y,Z,X,Y,Z,X,Y,Z,X,Y,Z,X,Y,Z,X,Y,Z,X,Y,Z
,,mm,mm,mm,mm,mm,mm,mm,mm,mm,mm,mm,mm,mm,mm,mm,mm,mm,mm,mm,mm,mm,mm,mm,mm,mm,mm,mm,mm,mm,mm,mm,mm,mm,mm,mm,mm,mm,mm,mm,mm,mm,mm,mm,mm,mm,mm,mm,mm
1,0,116.587,418.911,1137.29,94.8768,152.125,1117.64,-97.7792,344.804,1194.27,-98.7927,238.395,1185.32,120.101,477.091,864.401,144.388,434.232,668.001,138.243,416.095,461.417,90.6688,354.398,241.822,23.8627,308.412,195.909,242.268,344.398,195.892,29.4827,104.874,825.568,-0.902658,130.901,633.252,-145.021,143.01,474.719,-290.972,195.88,327.778,-369.952,235.477,349.626,-246.095,224.383,183.926
2,0,116.106,420.532,1136.82,94.7373,152.876,1114.95,-98.5744,344.83,1192.29,-99.238,238.994,1182.25,116.945,479.215,861.661,144.507,435.455,666.059,133.681,417.149,459.226,82.1678,354.821,241.315,14.6052,308.767,196.075,233.103,344.502,195.416,36.2441,103.45,823.654,9.61765,127.971,630.135,-137.296,140.283,476.744,-288.259,194.784,335.782,-364.648,235.574,361.592,-253.262,224.198,188.878
3,0,115.512,422.104,1136.43,94.5632,153.616,1112.62,-99.4136,344.841,1190.54,-99.7281,239.528,1179.53,113.67,481.13,859.139,143.937,436.596,664.201,128.805,418.1,457.184,73.651,355.172,240.86,5.42209,309.032,196.223,223.98,344.579,194.972,42.4823,102.178,822.013,19.9791,125.264,627.633,-129.342,137.688,478.865,-284.791,193.665,343.302,-358.964,235.615,372.527,-258.277,223.467,193.823
4,0,114.807,423.627,1136.13,94.3545,154.347,1110.66,-100.297,344.836,1189.02,-100.263,239.998,1177.16,110.276,482.835,856.839,142.681,437.656,662.429,123.618,418.948,455.294,65.1185,355.453,240.459,-3.68764,309.21,196.355,214.901,344.63,194.558,48.1994,101.057,820.644,30.1812,122.778,625.745,-121.158,135.225,481.079,-280.569,192.522,350.335,-352.899,235.597,382.428,-261.145,222.197,198.753
5,0,113.99,425.1,1135.91,94.1111,155.068,1109.07,-101.224,344.816,1187.73,-100.842,240.403,1175.13,106.766,484.33,854.764,140.744,438.633,660.745,118.12,419.694,453.557,56.5708,355.665,240.112,-12.7268,309.305,196.476,205.863,344.654,194.175,53.4008,100.085,819.551,40.2227,120.516,624.47,-112.748,132.895,483.385,-275.596,191.355,356.872,-346.457,235.514,391.287,-261.874,220.407,203.65
6,0,113.062,426.521,1135.79,93.8328,155.777,1107.84,-102.195,344.78,1186.67,-101.466,240.744,1173.44,103.146,485.618,852.923,138.136,439.526,659.159,112.317,420.341,451.979,48.0091,355.811,239.821,-21.7008,309.323,196.594,196.863,344.653,193.822,58.0984,99.2589,818.742,50.101,118.48,623.806,-104.116,130.703,485.776,-269.878,190.159,362.894,-339.642,235.352,399.088,-260.483,218.132,208.472
7,0,112.023,427.889,1135.74,93.5193,156.475,1106.97,-103.209,344.727,1185.84,-102.135,241.02,1172.09,99.4211,486.7,851.328,134.876,440.333,657.68,106.213,420.893,450.567,39.4346,355.899,239.59,-30.6179,309.276,196.722,187.897,344.627,193.496,62.312,98.5714,818.225,59.8119,116.673,623.749,-95.2681,128.653,488.241,-263.423,188.928,368.372,-332.462,235.089,405.808,-257.006,215.43,213.163
8,0,110.877,429.199,1135.78,93.1704,157.159,1106.45,-104.266,344.656,1185.23,-102.847,241.23,1171.08,95.5956,487.579,849.989,130.99,441.051,656.323,99.8196,421.358,449.329,30.849,355.937,239.424,-39.4886,309.181,196.878,178.958,344.577,193.198,66.0716,98.0133,818.015,69.3497,115.099,624.291,-86.2158,126.751,490.766,-256.247,187.656,373.268,-324.928,234.698,411.414,-251.493,212.377,217.644
9,0,109.624,430.449,1135.91,92.7856,157.827,1106.29,-105.365,344.564,1184.85,-103.603,241.374,1170.41,91.673,488.262,848.915,126.511,441.676,655.106,93.1463,421.743,448.277,22.2536,355.936,239.329,-48.3256,309.057,197.082,170.037,344.508,192.923,69.4185,97.5724,818.124,78.7063,113.764,625.418,-76.9737,125.007,493.33,-248.367,186.335,377.53,-317.05,234.148,415.866,-244.011,209.07,221.825
10,0,108.269,431.631,1136.11,92.3646,158.477,1106.47,-106.505,344.449,1184.7,-104.401,241.451,1170.07,87.6538,488.754,848.112,121.481,442.206,654.046,86.2063,422.057,447.419,13.6491,355.907,239.31,-57.1419,308.925,197.358,161.125,344.42,192.671,72.4049,97.2337,818.567,87.8715,112.672,627.11,-67.5606,123.428,495.906,-239.81,184.959,381.105,-308.841,233.407,419.121,-234.648,205.617,225.611
11,0,106.814,432.739,1136.4,91.9073,159.105,1106.98,-107.684,344.308,1184.77,-105.241,241.459,1170.05,83.5369,489.065,847.576,115.945,442.641,653.163,79.0134,422.312,446.764,5.03518,355.865,239.375,-65.95,308.809,197.729,152.21,344.319,192.438,75.094,96.9803,819.353,96.8324,111.827,629.34,-57.9988,122.021,498.463,-230.605,183.524,383.933,-300.311,232.45,421.134,-223.508,202.131,228.914
12,0,105.266,433.766,1136.77,91.4139,159.706,1107.81,-108.901,344.137,1185.06,-106.12,241.399,1170.35,79.3204,489.207,847.298,109.952,442.978,652.47,71.5819,422.519,446.317,-3.5903,355.82,239.529,-74.7603,308.728,198.213,143.282,344.207,192.221,77.558,96.7943,820.491,105.573,111.231,632.073,-48.314,120.793,500.964,-220.787,182.03,385.956,-291.464,231.258,421.865,-210.71,198.717,231.658
13,0,103.628,434.705,1137.21,90.8851,160.278,1108.93,-110.153,343.931,1185.57,-107.037,241.268,1170.95,75.0039,489.193,847.263,103.553,443.221,651.982,63.9257,422.689,446.081,-12.2312,355.785,239.778,-83.5809,308.697,198.827,134.329,344.089,192.018,79.8754,96.6576,821.982,114.074,110.884,635.261,-38.5342,119.747,503.368,-210.392,180.482,387.126,-282.3,229.828,421.283,-196.386,195.47,233.792
14,0,101.908,435.548,1137.72,90.3221,160.814,1110.34,-111.438,343.686,1186.3,-107.988,241.065,1171.84,70.5898,489.04,847.451,96.7974,443.372,651.705,56.0581,422.831,446.056,-20.8936,355.767,240.126,-92.4167,308.725,199.58,125.341,343.968,191.828,82.1282,96.553,823.823,122.311,110.781,638.852,-28.6891,118.883,505.632,-199.457,178.891,387.402,-272.81,228.169,419.37,-180.677,192.462,235.292
15,0,100.111,436.288,1138.3,89.7271,161.31,1112.02,-112.753,343.397,1187.23,-108.969,240.79,1173.01,66.0836,488.765,847.838,89.7307,443.438,651.642,47.9914,422.955,446.237,-29.585,355.772,240.578,-101.271,308.814,200.477,116.308,343.847,191.647,84.3975,96.4648,826.005,130.254,110.913,642.785,-18.8091,118.199,507.711,-188.019,177.274,386.761,-262.976,226.311,416.124,-163.728,189.743,236.164
16,0,98.2445,436.92,1138.95,89.1029,161.763,1113.93,-114.094,343.059,1188.35,-109.975,240.44,1174.43,61.4938,488.389,848.399,82.3951,443.425,651.79,39.7374,423.067,446.616,-38.3145,355.8,241.137,-110.145,308.958,201.516,107.224,343.729,191.475,86.7593,96.3804,828.514,137.871,111.267,646.992,-8.92484,117.688,509.558,-176.108,175.653,385.195,-252.771,224.294,411.568,-145.684,187.338,236.443
17,0,96.3167,437.438,1139.64,88.4537,162.166,1116.05,-115.456,342.666,1189.67,-111.002,240.015,1176.09,56.8296,487.93,849.109,74.8283,443.343,652.14,31.3075,423.17,447.183,-47.0914,355.85,241.804,-119.041,309.145,202.693,98.0806,343.614,191.309,89.28,96.2899,831.332,145.121,111.824,651.402,0.9338,117.341,511.133,-163.754,174.055,382.718,-242.156,222.174,405.744,-126.692,185.25,236.188
18,0,94.3352,437.841,1140.39,87.7847,162.517,1118.36,-116.835,342.215,1191.16,-112.042,239.515,1177.97,52.0987,487.407,849.943,67.0637,443.201,652.682,22.7136,423.266,447.925,-55.9245,355.917,242.581,-127.962,309.357,204.002,88.8741,343.505,191.149,92.0116,96.1878,834.44,151.961,112.563,655.939,10.7377,117.143,512.396,-150.977,172.51,379.362,-231.087,220.014,398.722,-106.89,183.464,235.48
19,0,92.3085,438.126,1141.18,87.1022,162.811,1120.83,-118.225,341.699,1192.81,-113.089,238.939,1180.03,47.3041,486.836,850.878,59.1312,443.008,653.399,13.9693,423.354,448.827,-64.8207,355.991,243.466,-136.915,309.576,205.438,79.6012,343.4,190.992,94.9881,96.0725,837.815,158.344,113.458,660.531,20.4589,117.082,513.318,-137.792,171.049,375.183,-219.515,217.879,390.596,-86.4131,181.953,234.407
20,0,90.2453,438.295,1142,86.4139,163.047,1123.43,-119.619,341.116,1194.61,-114.134,238.286,1182.26,42.443,486.227,851.893,51.0584,442.772,654.272,5.09022,423.429,449.873,-73.7843,356.063,244.46,-145.908,309.783,207,70.26,343.299,190.838,98.2223,95.947,841.431,164.22,114.481,665.104,30.07,117.139,513.876,-124.21,169.699,370.252,-207.388,215.832,381.483,-65.3884,180.685,233.066
21,0,88.1551,438.352,1142.85,85.7286,163.223,1126.13,-121.012,340.461,1196.53,-115.167,237.558,1184.62,37.5061,485.589,852.97,42.8721,442.502,655.282,-3.90454,423.486,451.048,-82.8159,356.123,245.557,-154.951,309.96,208.685,60.8496,343.201,190.683,101.704,95.8184,845.259,169.541,115.604,669.592,39.5445,117.298,514.061,-110.237,168.486,364.661,-194.66,213.93,371.522,-43.9346,179.628,231.55
22,0,86.0474,438.301,1143.71,85.0562,163.337,1128.91,-122.395,339.731,1198.56,-116.179,236.755,1187.08,32.4794,484.923,854.091,34.5997,442.202,656.408,-12.9922,423.518,452.336,-91.9122,356.16,246.757,-164.052,310.093,210.497,51.37,343.102,190.526,105.4,95.6978,849.267,174.261,116.797,673.931,48.8559,117.542,513.875,-95.878,167.431,358.516,-181.291,212.216,360.873,-22.1632,178.753,229.948
23,0,83.9328,438.151,1144.57,84.4076,163.392,1131.72,-123.759,338.924,1200.67,-117.159,235.877,1189.62,27.3476,484.226,855.241,26.2707,441.876,657.63,-22.1461,423.516,453.721,-101.066,356.163,248.054,-173.217,310.172,212.438,41.8219,343.001,190.363,109.254,95.5984,853.414,178.34,118.031,678.066,57.9777,117.855,513.334,-81.1413,166.548,351.936,-167.256,210.723,349.707,-0.178985,178.039,228.337
24,0,81.8222,437.909,1145.43,83.7944,163.386,1134.54,-125.097,338.038,1202.84,-118.096,234.927,1192.19,22.099,483.494,856.408,17.9172,441.525,658.927,-31.3357,423.471,455.188,-110.265,356.125,249.445,-182.446,310.19,214.51,32.2063,342.895,190.191,113.192,95.5348,857.651,181.746,119.283,681.95,66.8825,118.222,512.467,-66.0397,165.845,345.048,-152.546,209.469,338.205,21.9181,177.473,226.787
25,0,79.7273,437.585,1146.28,83.2289,163.324,1137.34,-126.397,337.072,1205.04,-118.978,233.906,1194.78,16.7303,482.717,857.582,9.57489,441.149,660.281,-40.5276,423.376,456.724,-119.497,356.039,250.925,-191.732,310.142,216.711,22.5244,342.781,190.007,117.124,95.5205,861.922,184.456,120.529,685.544,75.5427,118.633,511.315,-50.5963,165.325,337.986,-137.175,208.46,326.554,44.0311,177.05,225.355
26,0,77.6604,437.192,1147.1,82.7235,163.209,1140.08,-127.651,336.027,1207.24,-119.792,232.818,1197.34,11.2512,481.888,858.755,1.2827,440.746,661.676,-49.6864,423.224,458.317,-128.745,355.902,252.491,-201.062,310.025,219.041,12.7777,342.657,189.809,120.947,95.5656,866.158,186.464,121.753,688.816,83.9298,119.079,509.927,-34.848,164.984,330.885,-121.183,207.689,314.937,66.063,176.771,224.089
27,0,75.6345,436.741,1147.9,82.291,163.044,1142.75,-128.846,334.905,1209.42,-120.528,231.663,1199.85,5.68734,481,859.92,-6.91744,440.312,663.096,-58.7759,423.01,459.956,-137.993,355.711,254.138,-210.416,309.84,221.492,2.9678,342.519,189.595,124.555,95.6752,870.286,187.775,122.942,691.746,92.0146,119.555,508.36,-18.8486,164.815,323.875,-104.639,207.145,303.531,87.9147,176.644,223.026
28,0,73.6635,436.242,1148.65,81.9437,162.835,1145.31,-129.973,333.706,1211.54,-121.173,230.447,1202.26,0.0813547,480.047,861.071,-14.9815,439.843,664.526,-67.7608,422.731,461.632,-147.225,355.468,255.863,-219.771,309.589,224.059,-6.90344,342.364,189.367,127.842,95.8469,874.222,188.411,124.087,694.317,99.7677,120.058,506.671,-2.67211,164.809,317.079,-87.6406,206.809,292.499,109.482,176.678,222.194
29,0,71.7616,435.709,1149.35,81.6932,162.586,1147.74,-131.02,332.434,1213.59,-121.716,229.172,1204.56,-5.50847,479.031,862.202,-22.864,439.335,665.953,-76.6078,422.387,463.333,-156.427,355.177,257.663,-229.104,309.275,226.732,-16.834,342.189,189.124,130.706,96.0704,877.878,188.408,125.186,696.523,107.159,120.591,504.919,13.5858,164.958,310.607,-70.3152,206.662,281.989,130.654,176.886,221.61
30,0,69.9433,435.151,1150,81.5507,162.305,1150,-131.976,331.094,1215.53,-122.146,227.843,1206.72,-11.0117,477.954,863.306,-30.5196,438.785,667.364,-85.2862,421.983,465.051,-165.586,354.844,259.533,-238.392,308.907,229.505,-26.8216,341.988,188.872,133.058,96.3275,881.169,187.817,126.239,698.364,114.159,121.16,503.154,29.8068,165.252,304.551,-52.8203,206.689,272.121,151.31,177.281,221.279
31,0,68.2236,434.577,1150.59,81.5257,161.996,1152.08,-132.831,329.69,1217.32,-122.455,226.464,1208.7,-16.3507,476.826,864.373,-37.9032,438.192,668.743,-93.769,421.523,466.775,-174.695,354.48,261.469,-247.617,308.497,232.368,-36.8636,341.758,188.613,134.824,96.5931,884.012,186.702,127.251,699.844,120.738,121.772,501.419,45.8502,165.687,298.981,-35.3398,206.877,262.994,171.32,177.877,221.192
32,0,66.6169,433.996,1151.1,81.6266,161.666,1153.95,-133.575,328.23,1218.96,-122.635,225.041,1210.48,-21.4468,475.66,865.392,-44.9708,437.557,670.077,-102.032,421.019,468.495,-183.747,354.099,263.465,-256.769,308.059,235.317,-46.9574,341.497,188.356,135.951,96.8382,886.333,185.138,128.231,700.972,126.864,122.437,499.745,61.5551,166.259,293.944,-18.0814,207.219,254.675,190.545,178.684,221.322
33,0,65.1375,433.413,1151.54,81.8597,161.32,1155.6,-134.199,326.721,1220.41,-122.679,223.579,1212.05,-26.2256,474.473,866.35,-51.6794,436.884,671.347,-110.056,420.482,470.197,-192.74,353.715,265.516,-265.843,307.616,238.347,-57.1001,341.201,188.105,136.409,97.0336,888.076,183.204,129.188,701.76,132.506,123.165,498.151,76.7426,166.97,289.459,-1.2719,207.714,247.202,208.833,179.714,221.623
34,0,63.7986,432.834,1151.88,82.2296,160.962,1157,-134.695,325.172,1221.65,-122.583,222.084,1213.38,-30.6225,473.285,867.23,-57.9868,436.182,672.534,-117.82,419.928,471.866,-201.677,353.347,267.615,-274.845,307.191,241.453,-67.289,340.874,187.867,136.194,97.1538,889.201,180.985,130.132,702.221,137.63,123.968,496.639,91.2207,167.823,285.521,14.8483,208.365,240.583,226.027,180.97,222.034
35,0,62.6122,432.26,1152.14,82.7384,160.598,1158.15,-135.057,323.593,1222.66,-122.347,220.563,1214.46,-34.5859,472.116,868.015,-63.8509,435.463,673.613,-125.306,419.374,473.485,-210.558,353.016,269.756,-283.784,306.813,244.635,-77.5216,340.519,187.648,135.332,97.1814,889.691,178.567,131.074,702.372,142.202,124.854,495.203,104.789,168.821,282.098,30.032,209.179,234.797,241.964,182.452,222.475
36,0,61.5887,431.691,1152.28,83.3859,160.231,1159.03,-135.281,321.993,1223.42,-121.97,219.025,1215.27,-38.0786,470.986,868.684,-69.2286,434.743,674.558,-132.493,418.839,475.036,-219.387,352.743,271.933,-292.677,306.513,247.893,-87.7954,340.145,187.451,133.879,97.1106,889.553,176.03,132.021,702.228,146.186,125.831,493.82,117.247,169.969,279.14,44.0322,210.162,229.8,256.479,184.15,222.856
37,0,60.7362,431.125,1152.31,84.1689,159.861,1159.62,-135.365,320.384,1223.91,-121.456,217.475,1215.81,-41.0781,469.914,869.215,-74.0747,434.043,675.339,-139.357,418.342,476.498,-228.164,352.549,274.143,-301.54,306.324,251.229,-98.1076,339.761,187.277,131.918,96.9487,888.819,173.452,132.98,701.804,149.546,126.901,492.463,128.397,171.269,276.577,56.6111,211.32,225.527,269.409,186.042,223.079
38,0,60.0606,430.56,1152.21,85.082,159.491,1159.94,-135.309,318.779,1224.13,-120.812,215.924,1216.08,-43.574,468.914,869.585,-78.3416,433.386,675.924,-145.869,417.903,477.85,-236.881,352.452,276.384,-310.387,306.275,254.649,-108.455,339.381,187.126,129.563,96.717,887.544,170.898,133.952,701.114,152.243,128.062,491.097,138.058,172.716,274.332,67.5488,212.652,221.897,280.601,188.096,223.053
39,0,59.5649,429.99,1151.97,86.1166,159.12,1159.97,-135.117,317.189,1224.07,-120.046,214.38,1216.07,-45.5652,468.001,869.77,-81.9778,432.802,676.277,-151.993,417.543,479.072,-245.522,352.468,278.657,-319.224,306.39,258.165,-118.834,339.016,186.991,126.947,96.4479,885.799,168.426,134.933,700.173,154.246,129.305,489.686,146.069,174.301,272.32,76.6528,214.151,218.821,289.918,190.267,222.698
40,0,59.2488,429.409,1151.58,87.2615,158.745,1159.71,-134.794,315.627,1223.73,-119.171,212.852,1215.79,-47.0558,467.183,869.743,-84.929,432.321,676.365,-157.683,417.282,480.142,-254.058,352.61,280.965,-328.039,306.686,261.795,-129.239,338.678,186.865,124.223,96.1813,883.674,166.081,135.915,698.995,155.528,130.616,488.197,152.3,176.007,270.464,83.7676,215.8,216.207,297.247,192.499,221.955
41,0,59.1091,428.811,1151.04,88.5024,158.363,1159.18,-134.348,314.105,1223.1,-118.201,211.349,1215.24,-48.0508,466.469,869.477,-87.1381,431.975,676.153,-162.885,417.139,481.046,-262.441,352.885,283.317,-336.802,307.169,265.567,-139.665,338.372,186.735,121.551,95.9588,881.265,163.897,136.884,697.593,156.068,131.977,486.601,156.66,177.808,268.691,88.7834,217.571,213.967,302.507,194.73,220.794
42,0,59.1392,428.189,1150.33,89.8229,157.97,1158.37,-133.791,312.635,1222.18,-117.155,209.881,1214.44,-48.553,465.866,868.946,-88.5472,431.799,675.61,-167.537,417.132,481.77,-270.608,353.296,285.723,-345.454,307.835,269.519,-150.108,338.097,186.59,119.089,95.8173,878.671,161.896,137.82,695.983,155.863,133.36,484.878,159.101,179.668,266.944,91.6436,219.425,212.021,305.659,196.893,219.219
43,0,59.329,427.536,1149.44,91.2037,157.56,1157.31,-133.135,311.228,1220.99,-116.05,208.457,1213.4,-48.5598,465.379,868.124,-89.1004,431.825,674.712,-171.571,417.279,482.308,-278.473,353.841,288.199,-353.907,308.667,273.698,-160.564,337.847,186.412,116.982,95.7822,875.987,160.089,138.698,694.181,154.922,134.737,483.018,159.626,181.546,265.182,92.3504,221.317,210.301,306.707,198.924,217.267
44,0,59.6655,426.846,1148.38,92.6238,157.126,1156.01,-132.397,309.894,1219.54,-114.909,207.086,1212.14,-48.0619,465.014,866.992,-88.7462,432.081,673.442,-174.912,417.594,482.659,-285.936,354.514,290.763,-362.038,309.637,278.162,-171.031,337.602,186.188,115.344,95.8626,873.298,158.477,139.492,692.206,153.272,136.074,481.022,158.289,183.394,263.385,90.9666,223.192,208.755,305.712,200.767,215.006
45,0,60.1325,426.115,1147.14,94.0601,156.662,1154.49,-131.595,308.641,1217.84,-113.754,205.776,1210.68,-47.0434,464.779,865.536,-87.442,432.594,671.792,-177.484,418.093,482.83,-292.881,355.307,293.438,-369.696,310.712,282.976,-181.507,337.34,185.907,114.254,96.0476,870.676,157.052,140.172,690.078,150.961,137.339,478.903,155.193,185.161,261.549,87.6147,224.992,207.348,302.784,202.374,212.53
46,0,60.7116,425.341,1145.72,95.4885,156.161,1152.78,-130.748,307.476,1215.92,-112.608,204.534,1209.04,-45.483,464.681,863.753,-85.1578,433.38,669.766,-179.215,418.786,482.836,-299.183,356.211,296.249,-376.705,311.852,288.205,-191.988,337.029,185.57,113.743,96.3059,868.174,155.796,140.71,687.821,148.052,138.498,476.682,150.49,186.798,259.687,82.4715,226.662,206.056,298.085,203.714,209.946
47,0,61.3821,424.521,1144.12,96.8841,155.615,1150.89,-129.876,306.405,1213.79,-111.495,203.368,1207.26,-43.3571,464.727,861.651,-81.8798,434.451,667.385,-180.037,419.682,482.698,-304.719,357.216,299.223,-382.875,313.02,293.911,-202.462,336.638,185.185,113.788,96.5879,865.826,154.685,141.078,685.462,144.624,139.525,474.389,144.367,188.26,257.823,75.7589,228.149,204.874,291.82,204.771,207.367
48,0,62.1215,423.658,1142.37,98.2216,155.018,1148.86,-129.001,305.429,1211.49,-110.438,202.283,1205.35,-40.6435,464.924,859.258,-77.6135,435.807,664.679,-179.896,420.784,482.444,-309.371,358.312,302.391,-388.018,314.183,300.144,-212.904,336.14,184.783,114.314,96.8311,863.648,153.689,141.256,683.026,140.765,140.394,472.056,137.043,189.506,255.99,67.7313,229.412,203.802,284.228,205.542,204.898
49,0,62.9067,422.754,1140.47,99.4763,154.364,1146.71,-128.143,304.551,1209.04,-109.459,201.282,1203.35,-37.3263,465.276,856.615,-72.3857,437.438,661.697,-178.752,422.094,482.107,-313.039,359.491,305.781,-391.96,315.316,306.935,-223.263,335.522,184.412,115.199,96.9673,861.637,152.769,141.229,680.542,136.566,141.09,469.72,128.75,190.51,254.222,58.6611,230.421,202.849,275.567,206.042,202.629
50,0,63.714,421.815,1138.45,100.625,153.649,1144.49,-127.325,303.769,1206.49,-108.579,200.368,1201.28,-33.4015,465.783,853.781,-66.2451,439.324,658.5,-176.586,423.605,481.724,-315.646,360.746,309.423,-394.562,316.404,314.289,-233.455,334.788,184.146,116.282,96.9312,859.775,151.882,140.99,678.037,132.116,141.604,467.412,119.727,191.255,252.553,48.8229,231.16,202.026,266.102,206.294,200.627
51,0,64.5198,420.849,1136.33,101.645,152.87,1142.21,-126.565,303.079,1203.86,-107.817,199.543,1199.19,-28.8817,466.439,850.828,-59.2609,441.432,655.161,-173.399,425.305,481.335,-317.142,362.069,313.34,-395.734,317.439,322.178,-243.353,333.97,184.077,117.384,96.6691,858.031,150.979,140.542,675.534,127.495,141.936,465.162,110.201,191.738,251.011,38.478,231.63,201.341,256.086,206.329,198.932
52,0,65.3014,419.864,1134.14,102.516,152.026,1139.92,-125.882,302.478,1201.2,-107.188,198.806,1197.1,-23.8003,467.234,847.839,-51.5204,443.723,651.763,-169.213,427.176,480.976,-317.509,363.453,317.549,-395.442,318.422,330.542,-252.785,333.128,184.312,118.316,96.1455,856.37,150.007,139.898,673.056,122.766,142.093,462.992,100.38,191.971,249.612,27.8618,231.845,200.799,245.749,206.186,197.557
53,0,66.0375,418.87,1131.91,103.223,151.117,1137.65,-125.293,301.958,1198.54,-106.705,198.155,1195.05,-18.2148,468.149,844.901,-43.1249,446.148,648.395,-164.072,429.191,480.686,-316.76,364.888,322.055,-393.719,319.355,339.279,-261.528,332.355,184.963,118.905,95.3482,854.751,148.91,139.079,670.619,117.971,142.091,460.919,90.442,191.974,248.368,17.1735,231.832,200.4,235.287,205.904,196.49
54,0,66.7084,417.879,1129.68,103.751,150.146,1135.42,-124.812,301.512,1195.93,-106.377,197.588,1193.06,-12.2069,469.161,842.103,-34.1842,448.652,645.148,-158.038,431.318,480.499,-314.935,366.363,326.85,-390.654,320.237,348.256,-269.318,331.772,186.131,119.005,94.2895,853.14,147.628,138.115,668.238,113.131,141.95,458.952,80.5297,191.781,247.276,6.56974,231.629,200.136,224.856,205.522,195.702
55,0,67.2966,416.901,1127.49,104.091,149.119,1133.28,-124.451,301.13,1193.41,-106.212,197.098,1191.16,-5.88123,470.239,839.523,-24.8115,451.179,642.115,-151.188,433.519,480.444,-312.093,367.866,331.909,-386.387,321.066,357.307,-275.86,331.518,187.897,118.506,93.0054,851.506,146.105,137.042,665.924,108.247,141.694,457.094,70.7486,191.43,246.329,-3.83743,231.278,199.994,214.568,205.075,195.147
56,0,67.7873,415.947,1125.38,104.235,148.043,1131.24,-124.218,300.803,1191.01,-106.211,196.679,1189.39,0.639059,471.351,837.23,-15.1177,453.672,639.384,-143.609,435.751,480.546,-308.307,369.384,337.184,-381.096,321.829,366.242,-280.849,331.74,190.301,117.348,91.5507,849.833,144.282,135.899,663.687,103.299,141.352,455.347,61.1667,190.963,245.511,-13.9792,230.823,199.955,204.494,204.597,194.773
57,0,68.1681,415.026,1123.39,104.181,146.926,1129.34,-124.12,300.52,1188.79,-106.374,196.325,1187.77,7.21897,472.461,835.279,-5.20673,456.078,637.036,-135.393,437.969,480.824,-303.657,370.903,342.606,-374.969,322.513,374.852,-283.989,332.571,193.337,115.513,89.9934,848.118,142.109,134.728,661.533,98.2518,140.95,453.708,51.8178,190.426,244.807,-23.8255,230.31,200,194.667,204.115,194.528
58,0,68.4295,414.147,1121.57,103.932,145.78,1127.6,-124.159,300.272,1186.77,-106.695,196.028,1186.32,13.72,473.536,833.708,4.82755,458.347,635.142,-126.633,440.128,481.291,-298.217,372.412,348.082,-368.196,323.101,382.923,-285.017,334.12,196.943,113.029,88.4077,846.372,139.541,133.57,659.472,93.0622,140.516,452.174,42.7063,189.857,244.197,-33.3783,229.779,200.106,185.09,203.65,194.361
59,0,68.5647,413.318,1119.95,103.492,144.618,1126.05,-124.335,300.048,1184.99,-107.166,195.777,1185.08,20.0095,474.544,832.54,14.9035,460.437,633.763,-117.418,442.186,481.955,-292.057,373.904,353.494,-360.942,323.584,390.237,-283.725,336.45,201.003,109.956,86.8669,844.622,136.539,132.463,657.513,87.6826,140.076,450.747,33.8138,189.295,243.666,-42.664,229.265,200.256,175.741,203.219,194.231
60,0,68.5699,412.542,1118.56,102.869,143.452,1124.7,-124.646,299.841,1183.49,-107.777,195.565,1184.05,25.9697,475.459,831.783,24.9518,462.315,632.947,-107.833,444.105,482.817,-285.229,375.377,358.708,-353.338,323.966,396.592,-279.976,339.567,205.358,106.379,85.4375,842.904,133.078,131.443,655.668,82.067,139.652,449.429,25.1057,188.77,243.202,-51.725,228.794,200.436,166.586,202.834,194.106
61,0,68.4436,411.824,1117.45,102.076,142.299,1123.56,-125.087,299.642,1182.28,-108.515,195.381,1183.26,31.5056,476.262,831.436,34.9141,463.957,632.73,-97.9566,445.857,483.873,-277.775,376.836,363.569,-345.476,324.269,401.801,-273.713,343.416,209.815,102.396,84.1745,841.261,129.141,130.536,653.95,76.1758,139.262,448.225,16.5378,188.306,242.798,-60.6123,228.386,200.637,157.58,202.5,193.965
62,0,68.1872,411.165,1116.63,101.127,141.173,1122.66,-125.648,299.444,1181.39,-109.363,195.218,1182.72,36.5507,476.941,831.489,44.7403,465.346,633.131,-87.8582,447.42,485.112,-269.717,378.29,367.917,-337.401,324.537,405.7,-264.959,347.885,214.166,98.1064,83.1189,839.74,124.722,129.764,652.376,69.9788,138.923,447.145,8.06189,187.918,242.451,-69.3792,228.052,200.857,148.676,202.22,193.796
63,0,67.8043,410.564,1116.14,100.038,140.089,1121.99,-126.32,299.243,1180.84,-110.305,195.066,1182.45,41.07,477.49,831.928,54.3854,466.474,634.157,-77.6023,448.786,486.517,-261.067,379.758,371.589,-329.116,324.839,408.158,-253.813,352.814,218.208,93.6078,82.2968,838.385,119.826,129.142,650.964,63.4569,138.647,446.2,-0.368841,187.616,242.168,-78.0759,227.799,201.104,139.83,201.993,193.596
64,0,67.3009,410.02,1115.98,98.8262,139.061,1121.55,-127.092,299.036,1180.64,-111.323,194.92,1182.45,45.0599,477.912,832.74,63.806,467.338,635.799,-67.2479,449.956,488.066,-251.827,381.259,374.428,-320.59,325.255,409.071,-240.439,358.013,221.758,88.985,81.7193,837.233,114.469,128.676,649.731,56.6032,138.44,445.406,-8.79669,187.403,241.956,-86.7461,227.625,201.389,131.004,201.813,193.369
65,0,66.6848,409.531,1116.17,97.5116,138.105,1121.36,-127.95,298.82,1180.8,-112.398,194.772,1182.72,48.5444,478.213,833.908,72.9566,467.945,638.034,-56.8492,450.941,489.728,-241.989,382.816,376.297,-311.763,325.873,408.37,-225.046,363.286,224.673,84.3085,81.3845,836.315,108.674,128.366,648.695,49.4221,138.307,444.777,-17.2568,187.276,241.828,-95.4251,227.525,201.73,122.166,201.676,193.123
66,0,65.966,409.093,1116.71,96.1128,137.232,1121.39,-128.88,298.596,1181.31,-113.513,194.619,1183.28,51.5702,478.403,835.417,81.7874,468.301,640.823,-46.4567,451.76,491.467,-231.546,384.451,377.081,-302.556,326.775,406.019,-207.876,368.455,226.852,79.6327,81.2792,835.65,102.471,128.206,647.872,41.9283,138.246,444.33,-25.7759,187.229,241.802,-104.138,227.491,202.15,113.291,201.574,192.868
67,0,65.1561,408.704,1117.59,94.6491,136.454,1121.66,-129.867,298.367,1182.17,-114.649,194.459,1184.11,54.1984,478.497,837.251,90.2423,468.419,644.114,-36.1173,452.44,493.241,-220.484,386.181,376.697,-292.876,328.023,402.014,-189.184,373.378,228.249,74.9952,81.3814,835.248,95.8964,128.184,647.276,34.1445,138.254,444.078,-34.3717,187.253,241.893,-112.902,227.514,202.675,104.361,201.5,192.613
68,0,64.2681,408.361,1118.81,93.139,135.78,1122.13,-130.896,298.136,1183.37,-115.791,194.292,1185.21,56.4968,478.508,839.394,98.2586,468.315,647.841,-25.8734,453.009,495.002,-208.795,388.017,375.101,-282.627,329.651,396.381,-169.222,377.965,228.869,70.417,81.6631,835.108,88.9913,128.283,646.916,26.1001,138.324,444.034,-43.0538,187.336,242.121,-121.725,227.584,203.331,95.3659,201.444,192.368
69,0,63.3168,408.061,1120.34,91.6003,135.216,1122.81,-131.951,297.91,1184.88,-116.921,194.121,1186.57,58.5314,478.453,841.828,105.768,468.005,651.928,-15.7625,453.498,496.697,-196.466,389.963,372.287,-271.711,331.658,389.18,-148.23,382.182,228.767,65.9041,82.092,835.224,81.7993,128.483,646.798,17.829,138.446,444.207,-51.8237,187.465,242.503,-130.607,227.689,204.142,86.2991,201.401,192.139
70,0,62.318,407.803,1122.17,90.0495,134.767,1123.68,-133.017,297.697,1186.69,-118.028,193.949,1188.17,60.3601,478.344,844.53,112.697,467.507,656.287,-5.81542,453.935,498.272,-183.49,392.013,368.291,-260.031,334.01,380.504,-126.421,386.053,228.035,61.4486,82.6341,835.581,74.3664,128.765,646.924,9.36773,138.607,444.603,-60.6765,187.626,243.051,-139.545,227.818,205.133,77.1584,201.362,191.927
71,0,61.2886,407.588,1124.27,88.5018,134.436,1124.71,-134.079,297.504,1188.76,-119.098,193.784,1190,62.0271,478.196,847.47,118.973,466.843,660.823,3.94357,454.341,499.674,-169.853,394.152,363.189,-247.5,336.64,370.475,-103.982,389.639,226.801,57.031,83.2556,836.158,66.7399,129.106,647.291,0.754761,138.795,445.224,-69.6018,187.806,243.78,-148.529,227.962,206.323,67.944,201.322,191.732
72,0,60.2466,407.415,1126.59,86.971,134.223,1125.88,-135.121,297.344,1191.05,-120.122,193.635,1192.02,63.5611,478.021,850.615,124.524,466.034,665.439,13.4974,454.735,500.853,-155.546,396.357,357.095,-234.038,339.46,359.25,-81.0623,393.032,225.208,52.6237,83.9248,836.935,58.9674,129.484,647.89,-7.97109,138.996,446.066,-78.5854,187.991,244.695,-157.548,228.109,207.726,58.6583,201.276,191.551
73,0,59.2104,407.286,1129.11,85.4695,134.125,1127.18,-136.131,297.227,1193.54,-121.092,193.512,1194.22,64.974,477.832,853.924,129.285,465.106,670.035,22.8351,455.129,501.77,-140.556,398.597,350.153,-219.575,342.371,347.019,-57.781,396.324,223.412,48.1949,84.6136,837.887,51.0959,129.879,648.708,-16.7713,139.198,447.121,-87.6103,188.167,245.802,-166.591,228.248,209.353,49.3043,201.218,191.379
74,0,58.1992,407.204,1131.78,84.0081,134.137,1128.58,-137.095,297.166,1196.18,-122,193.429,1196.55,66.2631,477.64,857.349,133.198,464.085,674.514,31.9499,455.525,502.396,-124.872,400.836,342.538,-204.061,345.275,334,-34.225,399.594,221.565,43.7131,85.2991,838.99,43.1713,130.276,649.729,-25.6082,139.387,448.379,-96.6583,188.323,247.097,-175.644,228.369,211.21,39.8858,201.146,191.21
75,0,57.2322,407.172,1134.56,82.5965,134.254,1130.06,-138,297.174,1198.92,-122.844,193.399,1198.99,67.4144,477.457,860.841,136.223,462.998,678.785,40.8368,455.925,502.718,-108.489,403.036,334.442,-187.464,348.085,320.439,-10.4563,402.883,219.808,39.1526,85.9644,840.219,35.2372,130.658,650.932,-34.4458,139.554,449.822,-105.711,188.447,248.576,-184.697,228.46,213.295,30.4062,201.058,191.038
76,0,56.3287,407.194,1137.4,81.2428,134.467,1131.6,-138.836,297.264,1201.71,-123.618,193.437,1201.5,68.4055,477.298,864.343,138.333,461.874,682.766,49.4891,456.323,502.74,-91.4142,405.157,326.074,-169.781,350.732,306.605,13.4807,406.185,218.267,34.4975,86.5992,841.551,27.3348,131.015,652.293,-43.2504,139.691,451.431,-114.752,188.529,250.227,-193.739,228.512,215.602,20.8688,200.951,190.859
77,0,55.5076,407.272,1140.26,79.9545,134.768,1133.17,-139.591,297.449,1204.52,-124.322,193.557,1204.04,69.2102,477.178,867.798,139.521,460.743,686.386,57.8954,456.71,502.486,-73.6697,407.158,317.648,-151.04,353.167,292.783,37.549,409.442,217.044,29.7458,87.2002,842.963,19.5019,131.339,653.785,-51.9908,139.793,453.183,-123.765,188.561,252.038,-202.763,228.513,218.121,11.2766,200.826,190.669
78,0,54.7871,407.409,1143.08,78.7379,135.147,1134.74,-140.257,297.74,1207.29,-124.955,193.774,1206.58,69.8015,477.118,871.149,139.801,459.634,689.59,66.0371,457.079,501.993,-55.3054,409.003,309.376,-131.31,355.363,279.264,61.7078,412.551,216.221,24.9116,87.7705,844.43,11.7733,131.629,655.379,-60.6389,139.859,455.053,-132.74,188.537,253.989,-211.762,228.456,220.838,1.63182,200.681,190.469
79,0,54.1846,407.608,1145.84,77.5985,135.595,1136.3,-140.825,298.15,1209.99,-125.517,194.102,1209.06,70.1542,477.138,874.339,139.21,458.575,692.334,73.8862,457.42,501.312,-36.4045,410.659,301.457,-110.709,357.311,266.331,85.8998,415.375,215.854,20.0248,88.3186,845.932,4.18061,131.883,657.047,-69.1703,139.887,457.015,-141.669,188.453,256.063,-220.734,228.334,223.733,-8.06363,200.516,190.26
80,0,53.7158,407.87,1148.47,76.5409,136.101,1137.82,-141.288,298.687,1212.55,-126.008,194.554,1211.45,70.2464,477.263,877.31,137.806,457.59,694.595,81.4048,457.722,500.502,-17.091,412.097,294.07,-89.4053,359.009,254.25,110.039,417.762,215.979,15.1304,88.8569,847.444,-3.24708,132.106,658.757,-77.5638,139.88,459.04,-150.548,188.309,258.236,-229.679,228.143,226.786,-17.8083,200.332,190.047
81,0,53.395,408.196,1150.95,75.5694,136.656,1139.28,-141.642,299.361,1214.95,-126.43,195.14,1213.71,70.0609,477.516,880.01,135.668,456.7,696.361,88.5463,457.979,499.621,2.46556,413.295,287.366,-67.6238,360.462,243.251,133.999,419.569,216.605,10.2844,89.4003,848.945,-10.4822,132.302,660.479,-85.8015,139.842,461.1,-159.378,188.104,260.489,-238.599,227.882,229.973,-27.601,200.129,189.836
82,0,53.2343,408.585,1153.24,74.6871,137.253,1140.66,-141.882,300.178,1217.15,-126.784,195.868,1215.8,69.5858,477.92,882.386,132.896,455.921,697.637,95.2567,458.182,498.722,22.0488,414.236,281.453,-45.6449,361.675,233.512,157.607,420.683,217.717,5.55013,89.9643,850.411,-17.4972,132.481,662.181,-93.8679,139.78,463.168,-168.164,187.843,262.799,-247.499,227.551,233.269,-37.4408,199.906,189.635
83,0,53.2433,409.035,1155.3,73.8966,137.884,1141.94,-142.005,301.141,1219.1,-127.072,196.746,1217.68,68.8156,478.491,884.388,129.607,455.261,698.441,101.478,458.324,497.847,41.3977,414.909,276.399,-23.7999,362.648,225.148,180.639,421.037,219.273,0.993041,90.5633,851.821,-24.2634,132.651,663.833,-101.749,139.699,465.216,-176.912,187.531,265.146,-256.385,227.154,236.652,-47.3269,199.663,189.449
84,0,53.4288,409.545,1157.1,73.1997,138.543,1143.1,-142.011,302.253,1220.79,-127.296,197.774,1219.33,67.7529,479.238,885.974,125.93,454.723,698.8,107.153,458.397,497.019,60.2134,415.312,272.219,-2.4625,363.377,218.205,202.821,420.622,221.2,-3.32354,91.2096,853.151,-30.7489,132.822,665.402,-109.431,139.605,467.216,-185.63,187.174,267.513,-265.264,226.695,240.097,-57.2584,199.399,189.285
85,0,53.7946,410.11,1158.63,72.5971,139.226,1144.12,-141.901,303.511,1222.18,-127.459,198.955,1220.71,66.4107,480.155,887.105,122.007,454.302,698.752,112.226,458.395,496.244,78.1711,415.445,268.878,17.9643,363.852,212.65,223.838,419.489,223.389,-7.34238,91.9122,854.377,-36.9171,133.003,666.856,-116.899,139.505,469.142,-194.325,186.779,269.883,-274.141,226.182,243.585,-67.2346,199.114,189.145
86,0,54.3412,410.728,1159.86,72.0885,139.932,1144.97,-141.678,304.912,1223.27,-127.563,200.283,1221.79,64.8153,481.221,887.752,117.983,453.988,698.339,116.651,458.31,495.506,94.9346,415.318,266.298,37.0653,364.067,208.383,243.35,417.741,225.699,-11.0149,92.677,855.478,-42.7252,133.201,668.161,-124.132,139.405,470.968,-203.001,186.354,272.245,-283.019,225.619,247.1,-77.2548,198.809,189.028
87,0,55.0655,411.394,1160.77,71.6723,140.659,1145.66,-141.347,306.45,1224.03,-127.61,201.753,1222.57,63.0094,482.4,887.898,114.002,453.764,697.61,120.393,458.134,494.774,110.175,414.942,264.359,54.4336,364.013,205.241,261.007,415.521,227.958,-14.3025,93.5065,856.428,-48.1233,133.423,669.282,-131.108,139.307,472.67,-211.659,185.906,274.592,-291.896,225.014,250.633,-87.3183,198.485,188.929
88,0,55.9607,412.104,1161.38,71.3458,141.407,1146.15,-140.915,308.114,1224.47,-127.605,203.355,1223.03,61.0546,483.638,887.543,110.205,453.611,696.614,123.431,457.863,494.001,123.588,414.332,262.913,69.6924,363.693,203.02,276.478,412.996,229.969,-17.1759,94.4003,857.202,-53.0538,133.672,670.184,-137.795,139.216,474.224,-220.288,185.439,276.919,-300.763,224.372,254.182,-97.4247,198.145,188.838
89,0,57.0167,412.854,1161.66,71.1045,142.179,1146.45,-140.391,309.893,1224.59,-127.551,205.077,1223.15,59.0325,484.869,886.705,106.718,453.508,695.397,125.759,457.492,493.135,134.917,413.509,261.798,82.5176,363.113,201.496,289.475,410.332,231.528,-19.6143,95.3554,857.772,-57.4522,133.949,670.829,-144.154,139.133,475.612,-228.871,184.958,279.229,-309.603,223.697,257.754,-107.574,197.793,188.74
90,0,58.2197,413.641,1161.64,70.9429,142.976,1146.53,-139.785,311.773,1224.38,-127.453,206.904,1222.94,57.0436,486.019,885.423,103.654,453.434,694.009,127.392,457.021,492.123,143.966,412.492,260.853,92.6589,362.296,200.447,299.777,407.683,232.443,-21.6018,96.3668,858.108,-61.2478,134.252,671.182,-150.14,139.058,476.814,-237.378,184.464,281.528,-318.384,222.991,261.369,-117.766,197.434,188.62
91,0,59.5524,414.462,1161.32,70.8536,143.802,1146.4,-139.111,313.737,1223.87,-127.317,208.818,1222.41,55.2032,487.018,883.759,101.101,453.372,692.494,128.361,456.455,490.921,150.614,411.306,259.932,99.9573,361.269,199.673,307.251,405.173,232.555,-23.1254,97.4278,858.18,-64.3658,134.575,671.207,-155.697,138.99,477.82,-245.766,183.96,283.832,-327.064,222.258,265.058,-128.002,197.077,188.459
92,0,60.9945,415.315,1160.73,70.8281,144.661,1146.04,-138.383,315.767,1223.07,-127.148,210.802,1221.55,53.6336,487.806,881.796,99.1244,453.312,690.893,128.713,455.803,489.496,154.822,409.979,258.918,104.358,360.075,199.014,311.871,402.89,231.76,-24.1708,98.53,857.957,-66.7306,134.91,670.875,-160.765,138.926,478.622,-253.981,183.444,286.16,-335.582,221.501,268.862,-138.28,196.732,188.241
93,0,62.523,416.197,1159.87,70.8564,145.556,1145.47,-137.616,317.844,1222.01,-126.956,212.835,1220.39,52.4545,488.342,879.633,97.7593,453.247,689.243,128.509,455.085,487.836,156.636,408.539,257.731,105.915,358.761,198.36,313.716,400.883,230.03,-24.7204,99.6632,857.411,-68.269,135.247,670.16,-165.276,138.861,479.221,-261.954,182.915,288.54,-343.865,220.723,272.838,-148.6,196.41,187.957
94,0,64.1126,417.108,1158.8,70.9274,146.489,1144.68,-136.827,319.947,1220.72,-126.746,214.898,1218.95,51.7706,488.613,877.38,97.0126,453.183,687.578,127.82,454.321,485.95,156.183,407.022,256.335,104.789,357.383,197.652,312.977,399.167,227.422,-24.7515,100.816,856.52,-68.9142,135.572,669.048,-169.163,138.79,479.627,-269.607,182.372,291.006,-351.823,219.933,277.048,-158.955,196.125,187.604
95,0,65.7361,418.047,1157.53,71.0292,147.463,1143.68,-136.033,322.058,1219.21,-126.529,216.971,1217.26,51.6587,488.638,875.149,96.8611,453.13,685.927,126.723,453.544,483.865,153.659,405.466,254.734,101.237,355.995,196.878,309.93,397.732,224.075,-24.2361,101.975,855.271,-68.6103,135.871,667.532,-172.358,138.704,479.861,-276.853,181.815,293.599,-359.353,219.138,281.565,-169.335,195.889,187.193
96,0,67.3653,419.015,1156.11,71.1489,148.478,1142.48,-135.253,324.154,1217.54,-126.313,219.034,1215.34,52.1563,488.468,873.045,97.2541,453.106,684.314,125.294,452.788,481.629,149.316,403.912,252.969,95.5921,354.655,196.062,304.923,396.546,220.198,-23.1428,103.124,853.663,-67.3163,136.13,665.623,-174.796,138.597,479.952,-283.6,181.243,296.362,-366.341,218.353,286.459,-179.72,195.715,186.748
97,0,68.9713,420.01,1154.56,71.2736,149.535,1141.1,-134.503,326.218,1215.73,-126.11,221.068,1213.22,53.2537,488.182,871.156,98.1156,453.134,682.757,123.6,452.089,479.301,143.44,402.404,251.107,88.2352,353.412,195.255,298.341,395.573,216.042,-21.4403,104.248,851.713,-65.0093,136.335,663.343,-176.421,138.458,479.94,-289.755,180.661,299.342,-372.671,217.594,291.803,-190.081,195.612,186.312
98,0,70.5255,421.034,1152.94,71.3899,150.631,1139.56,-133.802,328.233,1213.82,-125.928,223.058,1210.94,54.8897,487.874,869.546,99.3483,453.241,681.272,121.7,451.485,476.948,136.334,400.987,249.233,79.5691,352.309,194.514,290.571,394.775,211.873,-19.1028,105.327,849.455,-61.6876,136.47,660.732,-177.186,138.279,479.876,-295.225,180.073,302.587,-378.224,216.882,297.657,-200.369,195.584,185.943
99,0,72,422.087,1151.27,71.485,151.764,1137.88,-133.166,330.181,1211.84,-125.779,224.988,1208.55,56.9543,487.648,868.249,100.839,453.452,679.864,119.633,451.011,474.635,128.3,399.702,247.432,69.987,351.38,193.894,281.979,394.121,207.933,-16.116,106.342,846.943,-57.372,136.526,657.846,-177.059,138.05,479.814,-299.926,179.487,306.14,-382.89,216.24,304.067,-210.518,195.629,185.717
100,0,73.3685,423.17,1149.6,71.5464,152.93,1136.1,-132.61,332.049,1209.84,-125.672,226.846,1206.08,59.2959,487.601,867.264,102.462,453.79,678.536,117.419,450.694,472.419,119.617,398.584,245.782,59.8463,350.644,193.437,272.88,393.585,204.419,-12.4841,107.274,844.25,-52.1061,136.494,654.754,-176.02,137.763,479.816,-303.783,178.912,310.037,-386.57,215.691,311.057,-220.437,195.74,185.718
101,0,74.6068,424.282,1147.95,71.5621,154.122,1134.23,-132.147,333.828,1207.85,-125.617,228.624,1203.56,61.7343,487.81,866.56,104.088,454.272,677.282,115.057,450.553,470.343,110.532,397.66,244.342,49.449,350.106,193.164,263.522,393.15,201.462,-8.23566,108.105,841.461,-45.9549,136.369,651.539,-174.068,137.411,479.942,-306.734,178.359,314.304,-389.185,215.259,318.624,-230.01,195.899,186.04
102,0,75.6937,425.422,1146.36,71.5215,155.336,1132.32,-131.79,335.508,1205.9,-125.624,230.313,1201.04,64.0759,488.326,866.081,105.587,454.907,676.093,112.528,450.595,468.436,101.245,396.944,243.149,39.0295,349.76,193.078,254.088,392.803,199.12,-3.42754,108.818,838.67,-39.0022,136.149,648.292,-171.214,136.989,480.251,-308.731,177.841,318.952,-390.68,214.964,326.735,-239.096,196.08,186.772
103,0,76.6108,426.59,1144.85,71.4148,156.562,1130.4,-131.547,337.084,1204.02,-125.7,231.911,1198.57,66.1314,489.166,865.75,106.834,455.695,674.955,109.798,450.817,466.708,91.9147,396.437,242.217,28.7518,349.584,193.162,244.692,392.535,197.381,1.85324,109.402,835.974,-31.3466,135.838,645.11,-167.488,136.497,480.794,-309.742,177.368,323.976,-391.026,214.821,335.321,-247.525,196.252,187.994
104,0,77.3439,427.782,1143.44,71.2336,157.793,1128.51,-131.426,338.555,1202.24,-125.853,233.415,1196.17,67.7315,490.315,865.482,107.718,456.627,673.849,106.822,451.2,465.155,82.648,396.128,241.533,18.713,349.548,193.386,235.393,392.336,196.183,7.49145,109.848,833.464,-23.0971,135.444,642.09,-162.931,135.939,481.613,-309.75,176.951,329.351,-390.225,214.84,344.281,-255.108,196.376,189.767
105,0,77.8822,428.997,1142.14,70.9709,159.02,1126.68,-131.432,339.92,1200.58,-126.088,234.826,1193.88,68.7401,491.727,865.197,108.141,457.682,672.76,103.551,451.717,463.762,73.5114,395.994,241.07,8.95354,349.614,193.713,226.207,392.194,195.424,13.3489,110.156,831.219,-14.3678,134.977,639.328,-157.599,135.319,482.736,-308.754,176.597,335.028,-388.303,215.02,353.482,-261.64,196.414,192.124
106,0,78.2193,430.228,1140.98,70.6208,160.235,1124.95,-131.568,341.185,1199.06,-126.411,236.147,1191.74,69.0635,493.331,864.825,108.023,458.834,671.67,99.9391,452.33,462.502,64.5349,396.003,240.786,-0.529696,349.741,194.101,217.127,392.097,194.986,19.2733,110.332,829.301,-5.27253,134.454,636.912,-151.552,134.651,484.177,-306.764,176.308,340.939,-385.316,215.352,362.761,-266.909,196.326,195.065
107,0,78.3529,431.471,1139.94,70.1791,161.429,1123.36,-131.832,342.353,1197.71,-126.825,237.384,1189.77,68.6542,495.043,864.317,107.31,460.046,670.568,95.9499,452.997,461.352,55.7208,396.115,240.634,-9.76953,349.89,194.515,208.13,392.029,194.756,25.1086,110.387,827.752,4.07937,133.893,634.921,-144.861,133.949,485.932,-303.803,176.085,346.994,-381.34,215.818,371.935,-270.708,196.081,198.553
108,0,78.2842,432.72,1139.05,69.643,162.593,1121.94,-132.223,343.434,1196.54,-127.331,238.542,1188.01,67.5102,496.774,863.649,105.968,461.28,669.447,91.5588,453.672,460.285,47.0519,396.293,240.568,-18.815,350.027,194.925,199.189,391.977,194.633,30.7078,110.339,826.595,13.5871,133.315,633.419,-137.598,133.232,487.985,-299.9,175.92,353.085,-376.464,216.388,380.805,-272.843,195.655,202.513
109,0,78.0186,433.966,1138.28,69.0108,163.718,1120.72,-132.737,344.436,1195.56,-127.932,239.63,1186.48,65.6703,498.439,862.822,103.987,462.493,668.306,86.7561,454.312,459.284,38.5003,396.496,240.547,-27.7206,350.124,195.314,190.283,391.925,194.539,35.9447,110.212,825.833,23.1607,132.741,632.458,-129.836,132.52,490.304,-295.093,175.803,359.087,-370.79,217.027,389.162,-273.149,195.037,206.837
110,0,77.5644,435.2,1137.65,68.2825,164.798,1119.73,-133.367,345.368,1194.78,-128.627,240.654,1185.2,63.2062,499.962,861.862,101.379,463.645,667.153,81.5481,454.874,458.335,30.0335,396.693,240.54,-36.5377,350.166,195.672,181.393,391.861,194.424,40.7235,110.032,825.456,32.7227,132.193,632.075,-121.647,131.835,492.844,-289.42,175.72,364.865,-364.418,217.691,396.802,-271.493,194.232,211.385
111,0,76.9329,436.412,1137.14,67.4592,165.824,1118.98,-134.105,346.243,1194.21,-129.413,241.624,1184.19,60.2128,501.286,860.81,98.1756,464.695,666,75.9549,455.328,457.436,21.62,396.856,240.527,-45.3097,350.144,196.003,172.51,391.777,194.261,44.9863,109.824,825.448,42.2075,131.693,632.29,-113.101,131.197,495.552,-282.926,175.652,370.277,-357.444,218.335,403.526,-267.788,193.257,216.003
112,0,76.1377,437.592,1136.75,66.5434,166.791,1118.5,-134.943,347.069,1193.85,-130.288,242.545,1183.46,56.7984,502.37,859.721,94.4221,465.611,664.866,70.0082,455.648,456.59,13.2324,396.968,240.499,-54.0696,350.062,196.316,163.627,391.666,194.044,48.7157,109.615,825.786,51.5604,131.261,633.11,-104.262,130.624,498.367,-275.653,175.58,375.179,-349.953,218.913,409.152,-261.991,192.142,220.525
113,0,75.1939,438.728,1136.47,65.539,167.693,1118.29,-135.869,347.857,1193.71,-131.249,243.426,1183.01,53.0753,503.191,858.654,90.1762,466.366,663.774,63.7471,455.82,455.807,4.84941,397.019,240.458,-62.8393,349.928,196.63,154.741,391.527,193.78,51.9338,109.424,826.45,60.7349,130.912,634.526,-95.1899,130.132,501.224,-267.642,175.485,379.434,-342.013,219.381,413.521,-254.111,190.926,224.792
114,0,74.1181,439.809,1136.3,64.4509,168.526,1118.38,-136.875,348.614,1193.77,-132.289,244.272,1182.85,49.1515,503.747,857.664,85.5009,466.942,662.747,57.2146,455.841,455.101,-3.5441,397.006,240.413,-71.631,349.756,196.965,145.849,391.358,193.486,54.697,109.267,827.426,69.6905,130.661,636.517,-85.9399,129.729,504.058,-258.932,175.348,382.915,-333.673,219.703,416.498,-244.198,189.654,228.656
115,0,72.9273,440.823,1136.22,63.2856,169.285,1118.75,-137.948,349.348,1194.05,-133.404,245.088,1182.99,45.124,504.05,856.8,80.46,467.328,661.809,50.4532,455.714,454.488,-11.9578,396.936,240.38,-80.4492,349.563,197.342,136.951,391.162,193.179,57.0873,109.155,828.704,78.3892,130.517,639.051,-76.5605,129.421,506.801,-249.558,175.153,385.51,-324.958,219.849,417.98,-232.345,188.367,231.995
116,0,71.6386,441.76,1136.23,62.0507,169.968,1119.4,-139.076,350.063,1194.53,-134.586,245.875,1183.41,41.0741,504.123,856.1,75.1142,467.523,660.982,43.5018,455.453,453.984,-20.3973,396.816,240.379,-89.2928,349.365,197.783,128.04,390.943,192.876,59.202,109.09,830.282,86.7929,130.483,642.083,-67.0944,129.205,509.391,-239.551,174.89,387.127,-315.87,219.804,417.896,-218.678,187.103,234.718
117,0,70.2686,442.609,1136.32,60.7554,170.572,1120.34,-140.25,350.762,1195.21,-135.827,246.637,1184.11,37.0634,503.999,855.586,69.5171,467.537,660.285,36.3931,455.078,453.603,-28.8661,396.66,240.43,-98.1576,349.177,198.305,119.112,390.706,192.59,61.1419,109.069,832.162,94.8609,130.56,645.559,-57.5794,129.074,511.768,-228.934,174.552,387.697,-306.39,219.564,416.211,-203.347,185.889,236.77
118,0,68.8333,443.362,1136.5,59.4097,171.098,1121.54,-141.457,351.445,1196.08,-137.119,247.37,1185.08,33.1326,503.717,855.27,63.7131,467.383,659.731,29.1518,454.612,453.358,-37.3668,396.482,240.554,-107.038,349.009,198.924,110.16,390.455,192.33,63.0007,109.085,834.348,102.549,130.742,649.416,-48.048,129.014,513.875,-217.725,174.139,387.179,-296.476,219.135,412.922,-186.517,184.738,238.129
119,0,67.3474,444.011,1136.76,58.0252,171.543,1122.98,-142.687,352.11,1197.12,-138.452,248.074,1186.29,29.3002,503.315,855.152,57.7356,467.082,659.33,21.795,454.082,453.255,-45.9025,396.296,240.77,-115.93,348.871,199.651,101.178,390.195,192.098,64.8558,109.124,836.842,109.807,131.021,653.586,-38.5286,129.008,515.663,-205.934,173.652,385.56,-286.072,218.537,408.066,-168.362,183.652,238.807
120,0,65.8245,444.551,1137.09,56.6143,171.911,1124.66,-143.931,352.752,1198.33,-139.816,248.743,1187.73,25.5642,502.831,855.221,51.6074,466.661,659.087,14.3319,453.514,453.301,-54.4777,396.115,241.091,-124.83,348.766,200.493,92.1581,389.929,191.895,66.7621,109.173,839.642,116.582,131.382,657.991,-29.0459,129.036,517.091,-193.567,173.1,382.855,-275.11,217.798,401.711,-149.056,182.623,238.849
121,0,64.2767,444.98,1137.49,55.1905,172.201,1126.54,-145.179,353.364,1199.69,-141.199,249.372,1189.37,21.9039,502.297,855.459,45.3415,466.147,659.003,6.76604,452.933,453.494,-63.0982,395.95,241.531,-133.739,348.697,201.456,83.0959,389.661,191.714,68.7479,109.217,842.737,122.818,131.808,662.553,-19.622,129.076,518.123,-180.622,172.492,379.109,-263.515,216.948,393.959,-128.767,181.633,238.32
122,0,62.7145,445.296,1137.96,53.7682,172.417,1128.59,-146.422,353.939,1201.18,-142.591,249.952,1191.2,18.2831,501.738,855.847,38.9426,465.568,659.073,-0.903257,452.36,453.833,-71.7706,395.808,242.097,-142.66,348.664,202.541,73.9868,389.395,191.551,70.8155,109.241,846.105,128.458,132.281,667.188,-10.2772,129.106,518.737,-167.096,171.84,374.395,-251.21,216.022,384.944,-107.656,180.662,237.306
123,0,61.1474,445.501,1138.5,52.3623,172.563,1130.79,-147.653,354.465,1202.79,-143.979,250.476,1193.17,14.6552,501.173,856.36,32.4101,464.951,659.291,-8.67839,451.813,454.311,-80.5016,395.696,242.792,-151.6,348.666,203.75,64.8279,389.132,191.398,72.9426,109.232,849.714,133.445,132.78,671.814,-1.03134,129.105,518.919,-152.986,171.155,368.811,-238.129,215.052,374.827,-85.871,179.688,235.904
124,0,59.5836,445.6,1139.09,50.9881,172.641,1133.11,-148.863,354.93,1204.49,-145.351,250.932,1195.26,10.9688,500.609,856.975,25.7403,464.32,659.649,-16.5615,451.303,454.921,-89.2967,395.614,243.616,-160.569,348.7,205.084,55.6168,388.874,191.247,75.088,109.18,853.52,137.73,133.282,676.348,8.09529,129.055,518.671,-138.289,170.447,362.48,-224.216,214.064,363.794,-63.5485,178.698,234.219
125,0,58.0303,445.598,1139.74,49.6611,172.656,1135.51,-150.047,355.323,1206.26,-146.695,251.311,1197.43,7.17348,500.048,857.671,18.9297,463.695,660.135,-24.5528,450.838,455.654,-98.1589,395.56,244.565,-169.576,348.764,206.542,46.3519,388.62,191.092,77.1966,109.077,857.467,141.27,133.767,680.714,17.0807,128.941,518.006,-123.013,169.725,355.543,-209.436,213.078,352.051,-40.8152,177.683,232.358
126,0,56.4941,445.505,1140.44,48.3968,172.614,1137.96,-151.197,355.63,1208.08,-147.997,251.602,1199.66,3.22598,499.484,858.427,11.9772,463.092,660.738,-32.6491,450.419,456.499,-107.088,395.529,245.632,-178.632,348.855,208.124,37.0314,388.371,190.928,79.2062,108.917,861.489,144.032,134.214,684.841,25.9003,128.753,516.955,-107.176,168.994,348.158,-193.778,212.104,339.815,-17.7897,176.646,230.429
127,0,54.9812,445.329,1141.18,47.21,172.518,1140.43,-152.308,355.838,1209.93,-149.246,251.794,1201.9,-0.904019,498.908,859.225,4.88666,462.521,661.446,-40.843,450.043,457.447,-116.079,395.514,246.808,-187.744,348.968,209.826,27.6533,388.123,190.75,81.0535,108.695,865.515,145.998,134.606,688.664,34.5264,128.485,515.56,-90.8127,168.258,340.491,-177.263,211.147,327.313,5.41404,175.595,228.535
128,0,53.4977,445.083,1141.94,46.1151,172.374,1142.89,-153.374,355.934,1211.77,-150.428,251.877,1204.13,-5.2299,498.307,860.052,-2.33182,461.988,662.247,-49.1231,449.702,458.488,-125.125,395.503,248.082,-196.916,349.095,211.645,18.2151,387.877,190.556,82.6783,108.408,869.465,147.166,134.929,692.133,42.9276,128.136,513.877,-73.9774,167.518,332.713,-159.945,210.204,314.771,28.6825,174.551,226.772
129,0,52.0499,444.777,1142.73,45.1254,172.188,1145.3,-154.39,355.908,1213.59,-151.534,251.84,1206.32,-9.74556,497.669,860.895,-9.66066,461.491,663.128,-57.4735,449.386,459.611,-134.214,395.485,249.444,-206.145,349.227,213.576,8.7137,387.628,190.346,84.0279,108.049,873.262,147.55,135.172,695.206,51.0692,127.71,511.971,-56.748,166.774,324.994,-141.916,209.267,302.409,51.8986,173.536,225.228
130,0,50.6444,444.423,1143.54,44.2531,171.962,1147.64,-155.35,355.748,1215.35,-152.551,251.676,1208.42,-14.425,496.984,861.744,-17.0746,461.027,664.076,-65.8751,449.083,460.809,-143.332,395.448,250.882,-215.423,349.353,215.612,-0.854375,387.375,190.121,85.0584,107.614,876.824,147.184,135.329,697.854,58.9132,127.215,509.912,-39.228,166.029,317.495,-123.301,208.33,290.433,74.9375,172.577,223.977
131,0,49.2884,444.033,1144.34,43.5087,171.702,1149.86,-156.25,355.446,1217.04,-153.47,251.378,1210.41,-19.2239,496.248,862.591,-24.5409,460.589,665.081,-74.3056,448.782,462.074,-152.464,395.381,252.387,-224.736,349.458,217.748,-10.4931,387.116,189.884,85.7359,107.092,880.077,146.118,135.4,700.063,66.4193,126.664,507.773,-21.5473,165.284,310.362,-104.265,207.386,279.028,97.6639,171.701,223.075
132,0,47.9896,443.617,1145.13,42.9013,171.409,1151.96,-157.084,354.996,1218.62,-154.283,250.94,1212.27,-24.0834,495.458,863.428,-32.02,460.166,666.128,-82.7403,448.471,463.396,-161.597,395.273,253.952,-234.067,349.526,219.977,-20.2062,386.848,189.637,86.0361,106.475,882.949,144.42,135.387,701.829,73.5453,126.074,505.624,-3.86187,164.545,303.717,-85.0053,206.437,268.355,119.929,170.937,222.556
133,0,46.7564,443.184,1145.89,42.4383,171.088,1153.89,-157.848,354.396,1220.08,-154.981,250.36,1213.96,-28.9346,494.618,864.249,-39.4669,459.749,667.205,-91.1532,448.142,464.769,-170.717,395.117,255.572,-243.395,349.543,222.295,-29.9972,386.573,189.387,85.9441,105.753,885.379,142.172,135.3,703.161,80.2488,125.467,503.526,13.6485,163.823,297.659,-65.7486,205.489,258.543,141.57,170.308,222.43
134,0,45.5978,442.74,1146.62,42.1247,170.737,1155.65,-158.538,353.643,1221.39,-155.559,249.636,1215.46,-33.7041,493.736,865.048,-46.8318,459.326,668.298,-99.5169,447.787,466.182,-179.817,394.908,257.245,-252.701,349.495,224.701,-39.8681,386.291,189.136,85.4541,104.918,887.317,139.469,135.152,704.078,86.4872,124.864,501.53,30.7837,163.133,292.255,-46.7466,204.56,249.683,162.409,169.839,222.675
135,0,44.5227,442.29,1147.3,41.9639,170.359,1157.2,-159.148,352.739,1222.53,-156.011,248.769,1216.76,-38.3197,492.821,865.818,-54.062,458.887,669.391,-107.803,447.402,467.626,-188.89,394.646,258.968,-261.97,349.371,227.193,-49.8194,386.004,188.89,84.57,103.967,888.726,136.415,134.96,704.608,92.219,124.291,499.67,47.3282,162.495,287.539,-28.2686,203.675,241.834,182.259,169.551,223.238
136,0,43.5406,441.837,1147.92,41.957,169.952,1158.54,-159.677,351.689,1223.48,-156.337,247.764,1217.83,-42.715,491.888,866.551,-61.1024,458.422,670.465,-115.982,446.989,469.086,-197.936,394.336,260.742,-271.188,349.17,229.772,-59.849,385.714,188.654,83.3062,102.908,889.588,133.12,134.743,704.785,97.4041,123.775,497.966,63.0576,161.934,283.511,-10.5937,202.869,235.012,200.922,169.464,224.036
137,0,42.6604,441.38,1148.46,42.1029,169.515,1159.65,-160.12,350.501,1224.23,-156.534,246.627,1218.67,-46.8329,490.947,867.238,-67.8962,457.926,671.501,-124.023,446.551,470.549,-206.959,393.989,262.568,-280.351,348.895,232.441,-69.9526,385.424,188.43,81.69,101.756,889.9,129.691,134.524,704.645,102.004,123.342,496.42,77.7455,161.48,280.139,5.99805,202.182,229.201,218.197,169.593,224.959
138,0,41.8904,440.916,1148.92,42.3986,169.044,1160.52,-160.474,349.185,1224.77,-156.603,245.365,1219.27,-50.628,490.011,867.867,-74.3855,457.394,672.475,-131.895,446.094,471.995,-215.962,393.617,264.446,-289.46,348.563,235.2,-80.1229,385.138,188.224,79.7642,100.541,889.684,126.237,134.323,704.227,105.983,123.016,495.018,91.1717,161.165,277.363,21.235,201.659,224.35,233.885,169.95,225.879
139,0,41.2377,440.44,1149.28,42.8389,168.535,1161.15,-160.739,347.753,1225.07,-156.548,243.99,1219.61,-54.0664,489.087,868.422,-80.5109,456.827,673.361,-139.562,445.629,473.405,-224.954,393.241,266.377,-298.524,348.197,238.052,-90.3508,384.856,188.036,77.5887,99.3082,888.978,122.853,134.162,703.57,109.308,122.82,493.731,103.13,161.019,275.099,34.8642,201.343,220.378,247.8,170.54,226.658
140,0,40.7081,439.944,1149.53,43.4163,167.984,1161.53,-160.913,346.221,1225.15,-156.373,242.514,1219.71,-57.1252,488.181,868.886,-86.2114,456.226,674.131,-146.986,445.167,474.757,-233.938,392.883,268.36,-307.557,347.832,240.998,-100.625,384.582,187.867,75.2425,98.1103,887.842,119.626,134.058,702.707,111.947,122.771,492.522,113.439,161.069,273.249,46.6608,201.274,217.186,259.772,171.359,227.158
141,0,40.3053,439.421,1149.66,44.1218,167.387,1161.67,-160.997,344.604,1224.99,-156.086,240.951,1219.56,-59.7895,487.296,869.237,-91.4237,455.601,674.754,-154.126,444.723,476.029,-242.915,392.566,270.397,-316.577,347.509,244.042,-110.934,384.315,187.717,72.8231,97.0096,886.351,116.627,134.024,701.672,113.877,122.881,491.346,121.946,161.339,271.705,56.4377,201.482,214.657,269.66,172.394,227.261
142,0,40.0308,438.858,1149.67,44.944,166.738,1161.57,-160.993,342.921,1224.59,-155.693,239.316,1219.17,-62.0494,486.429,869.452,-96.0816,454.961,675.197,-160.935,444.313,477.198,-251.876,392.315,272.489,-325.6,347.276,247.189,-121.267,384.056,187.582,70.4433,96.0688,884.593,113.907,134.066,700.489,115.078,123.154,490.156,128.536,161.841,270.359,64.0545,201.981,212.668,277.359,173.618,226.875
143,0,39.8835,438.247,1149.54,45.8701,166.032,1161.25,-160.905,341.189,1223.97,-155.207,237.625,1218.56,-63.8964,485.578,869.502,-100.116,454.323,675.429,-167.36,443.952,478.245,-260.8,392.151,274.639,-334.633,347.176,250.451,-131.612,383.805,187.455,68.2254,95.3447,882.661,111.499,134.185,699.18,115.54,123.587,488.91,133.142,162.578,269.112,69.4239,202.773,211.099,282.81,174.994,225.945
144,0,39.8593,437.574,1149.28,46.8852,165.264,1160.71,-160.736,339.429,1223.12,-154.638,235.895,1217.73,-65.3196,484.738,869.361,-103.454,453.706,675.42,-173.343,443.657,479.155,-269.648,392.094,276.855,-343.671,347.252,253.851,-141.96,383.558,187.329,66.2927,94.8795,880.647,109.418,134.37,697.763,115.262,124.166,487.569,135.741,163.539,267.879,72.5171,203.837,209.837,286.003,176.476,224.462
145,0,39.9513,436.831,1148.87,47.9732,164.429,1159.97,-160.494,337.659,1222.05,-154,234.142,1216.71,-66.3032,483.905,869.001,-106.021,453.135,675.143,-178.818,443.443,479.92,-278.364,392.156,279.148,-352.688,347.532,257.419,-152.306,383.313,187.191,64.7579,94.6942,878.634,107.657,134.606,696.248,114.258,124.87,486.107,136.362,164.7,266.595,73.3659,205.138,208.784,286.982,178.01,222.462
146,0,40.1498,436.008,1148.32,49.1165,163.526,1159.05,-160.187,335.896,1220.79,-153.308,232.382,1215.51,-66.8245,483.078,868.399,-107.741,452.635,674.576,-183.711,443.326,480.535,-286.868,392.343,281.536,-361.626,348.031,261.205,-162.648,383.062,187.03,63.711,94.7827,876.692,106.192,134.867,694.647,112.554,125.667,484.507,135.085,166.024,265.217,72.0619,206.621,207.859,285.85,179.536,220.021
147,0,40.4418,435.097,1147.62,50.2962,162.551,1157.96,-159.824,334.157,1219.35,-152.577,230.631,1214.17,-66.8532,482.259,867.537,-108.54,452.235,673.704,-187.945,443.317,481.006,-295.061,392.653,284.044,-370.396,348.742,265.269,-172.985,382.797,186.835,63.2064,95.1089,874.87,104.987,135.121,692.967,110.193,126.522,482.766,132.033,167.464,263.727,68.7523,208.218,207.006,282.758,180.997,217.25
148,0,40.8124,434.093,1146.79,51.4926,161.503,1156.74,-159.416,332.458,1217.75,-151.823,228.901,1212.7,-66.3524,481.453,866.404,-108.349,451.965,672.523,-191.434,443.427,481.346,-302.822,393.075,286.7,-378.868,349.638,269.686,-183.32,382.505,186.598,63.2536,95.6076,873.194,103.991,135.334,691.216,107.229,127.39,480.895,127.371,168.963,262.126,63.6327,209.854,206.186,277.902,182.338,214.282
149,0,41.244,432.994,1145.82,52.6852,160.384,1155.4,-158.975,330.81,1216.01,-151.064,227.207,1211.13,-65.2809,480.673,865.002,-107.105,451.853,671.036,-194.091,443.664,481.575,-310.017,393.592,289.543,-386.873,350.666,274.541,-193.658,382.171,186.317,63.8101,96.1888,871.67,103.144,135.467,689.403,103.732,128.228,478.916,121.297,170.46,260.437,56.936,211.451,205.381,271.516,183.514,211.257
150,0,41.7174,431.801,1144.73,53.853,159.195,1153.97,-158.514,329.224,1214.15,-150.317,225.558,1209.49,-63.5969,479.936,863.344,-104.761,451.925,669.259,-195.831,444.031,481.719,-316.5,394.182,292.612,-394.211,351.756,279.92,-203.998,381.78,186,64.7817,96.7456,870.281,102.383,135.483,687.538,99.7773,128.99,476.857,114.028,171.896,258.694,48.9205,212.935,204.59,263.852,184.489,208.309
151,0,42.2125,430.516,1143.52,54.9752,157.94,1152.46,-158.049,327.709,1212.21,-149.599,223.964,1207.81,-61.2625,479.26,861.456,-101.285,452.2,667.22,-196.572,444.529,481.809,-322.127,394.816,295.95,-400.659,352.822,285.906,-214.33,381.317,185.67,66.0268,97.1648,868.996,101.64,135.349,685.633,95.4448,129.637,474.756,105.791,173.212,256.941,39.8554,214.242,203.822,255.172,185.24,205.556
152,0,42.7085,429.148,1142.21,56.0312,156.624,1150.91,-157.593,326.27,1210.21,-148.925,222.431,1206.12,-58.2487,478.67,859.381,-96.6677,452.692,664.959,-196.243,445.155,481.88,-326.762,395.467,299.598,-405.986,353.77,292.563,-224.629,380.772,185.368,67.3689,97.3392,867.771,100.848,135.038,683.702,90.8135,130.132,472.65,96.813,174.362,255.223,30.0068,215.324,203.095,245.732,185.759,203.089
153,0,43.1845,427.705,1140.81,57.0011,155.255,1149.33,-157.162,324.909,1208.18,-148.312,220.965,1204.45,-54.5414,478.187,857.171,-90.924,453.404,662.524,-194.79,445.902,481.97,-330.289,396.108,303.594,-409.972,354.512,299.933,-234.844,380.142,185.154,68.6127,97.1796,866.563,99.9413,134.532,681.76,85.9549,130.451,470.576,87.3082,175.308,253.584,19.6252,216.15,202.427,235.767,186.05,200.966
154,0,43.6208,426.201,1139.34,57.866,153.841,1147.75,-156.77,323.628,1206.15,-147.774,219.569,1202.81,-50.146,477.831,854.89,-84.0973,454.33,659.977,-192.179,446.761,482.115,-332.617,396.716,307.966,-412.433,354.971,308.02,-244.889,379.438,185.104,69.5635,96.6251,865.33,98.8588,133.822,679.824,80.9293,130.578,468.569,77.47,176.025,252.06,8.93473,216.709,201.835,225.486,186.129,199.213
155,0,43.9985,424.65,1137.83,58.6087,152.39,1146.18,-156.432,322.425,1204.14,-147.325,218.245,1201.25,-45.0917,477.617,852.61,-76.259,455.453,657.386,-188.401,447.719,482.35,-333.691,397.276,312.726,-413.239,355.093,316.786,-254.634,378.683,185.315,70.0468,95.6505,864.041,97.5435,132.913,677.908,75.7811,130.509,466.656,67.4644,176.507,250.678,-1.87519,217.009,201.331,215.061,186.024,197.827
156,0,44.301,423.071,1136.3,59.2139,150.914,1144.64,-156.16,321.296,1202.19,-146.977,216.992,1199.77,-39.4342,477.552,850.407,-67.508,456.746,654.825,-183.477,448.759,482.707,-333.49,397.777,317.872,-412.33,354.853,326.144,-263.9,377.916,185.886,69.9254,94.2693,862.677,95.9443,131.819,676.027,70.538,130.252,464.856,57.4257,176.758,249.454,-12.6538,217.074,200.923,204.627,185.768,196.777
157,0,44.5136,421.48,1134.77,59.6684,149.424,1143.15,-155.967,320.236,1200.32,-146.738,215.81,1198.4,-33.2565,477.633,848.354,-57.9679,458.172,652.371,-177.458,449.865,483.217,-332.034,398.216,323.378,-409.727,354.257,335.957,-272.455,377.191,186.916,69.1114,92.5322,861.239,94.017,130.566,674.195,65.2101,129.825,463.184,47.4555,176.795,248.39,-23.2906,216.943,200.608,194.282,185.4,196.016
158,0,44.6246,419.897,1133.26,59.9618,147.931,1141.73,-155.865,319.239,1198.56,-146.617,214.695,1197.15,-26.6671,477.85,846.52,-47.7818,459.688,650.105,-170.423,451.015,483.904,-329.37,398.597,329.194,-405.533,353.345,346.042,-280.02,376.576,188.486,67.5718,90.521,859.74,91.7245,129.186,672.423,59.7925,129.254,461.643,37.6233,176.649,247.481,-33.7136,216.66,200.38,184.087,184.957,195.487
159,0,44.6246,418.341,1131.81,60.0862,146.446,1140.37,-155.861,318.297,1196.93,-146.619,213.645,1196.05,-19.7967,478.183,844.967,-37.1062,461.242,648.102,-162.476,452.186,484.785,-325.575,398.928,335.243,-399.922,352.181,356.176,-286.279,376.142,190.647,65.3273,88.3394,858.21,89.0383,127.721,670.718,54.268,128.575,460.232,27.9693,176.354,246.714,-43.8851,216.276,200.226,174.076,184.477,195.128
160,0,44.5072,416.83,1130.45,60.0371,144.983,1139.11,-155.964,317.405,1195.45,-146.747,212.655,1195.1,-12.7918,478.604,843.741,-26.1037,462.784,646.435,-153.742,453.353,485.874,-320.738,399.221,341.423,-393.125,350.851,366.104,-290.896,375.963,193.407,62.4439,86.1015,856.689,85.9383,126.216,669.087,48.6119,127.824,458.947,18.509,175.95,246.07,-53.7966,215.838,200.133,164.256,183.992,194.883
161,0,44.2689,415.38,1129.2,59.8126,143.551,1137.93,-156.178,316.552,1194.15,-147.001,211.722,1194.3,-5.80736,479.083,842.875,-14.9348,464.262,645.169,-144.357,454.491,487.175,-314.957,399.489,347.607,-385.403,349.449,375.552,-293.54,376.103,196.72,59.0206,83.92,855.218,82.4144,124.718,667.535,42.7967,127.042,457.778,9.23778,175.478,245.527,-63.4617,215.391,200.086,154.618,183.528,194.701
162,0,43.9087,414.006,1128.08,59.4144,142.163,1136.86,-156.506,315.734,1193.03,-147.381,210.839,1193.68,1.00279,479.586,842.387,-3.75117,465.628,644.36,-134.462,455.571,488.684,-308.325,399.745,353.647,-377.018,348.073,384.244,-293.908,376.607,200.487,55.1746,81.896,853.839,78.4661,123.274,666.064,36.7966,126.268,456.716,0.136637,174.977,245.065,-72.9099,214.97,200.072,145.141,183.107,194.543
163,0,43.428,412.722,1127.13,58.8468,140.829,1135.89,-156.95,314.943,1192.12,-147.882,210.003,1193.22,7.49471,480.079,842.278,7.31107,466.839,644.053,-124.192,456.568,490.388,-300.924,400.001,359.38,-368.208,346.812,391.912,-291.753,377.497,204.562,51.0256,80.1111,852.585,74.1031,121.928,664.679,30.5911,125.54,455.751,-8.82294,174.48,244.666,-82.1799,214.604,200.081,135.796,182.739,194.382
164,0,42.8303,411.537,1126.38,58.1172,139.557,1135.02,-157.507,314.173,1191.43,-148.497,209.208,1192.94,13.5435,480.533,842.534,18.1355,467.861,644.279,-113.675,457.454,492.264,-292.819,400.268,364.636,-359.165,345.744,398.313,-286.903,378.766,208.76,46.6836,78.6228,851.478,69.3445,120.717,663.38,24.1676,124.89,454.875,-17.6743,174.016,244.316,-91.3147,214.308,200.108,126.554,182.432,194.201
165,0,42.1211,410.46,1125.83,57.2356,138.358,1134.27,-158.174,313.42,1190.97,-149.22,208.452,1192.83,19.0509,480.921,843.13,28.628,468.667,645.054,-103.018,458.207,494.28,-284.057,400.558,369.243,-350.014,344.93,403.238,-279.281,380.381,212.878,42.2398,77.4633,850.525,64.2182,119.673,662.172,17.5227,124.344,454.083,-26.4519,173.606,244.007,-100.357,214.091,200.154,117.383,182.187,193.993
166,0,41.3074,409.495,1125.52,56.2142,137.24,1133.62,-158.946,312.682,1190.74,-150.039,207.728,1192.88,23.9504,481.223,844.03,38.7169,469.238,646.383,-92.3098,458.807,496.393,-274.667,400.882,373.041,-340.81,344.413,406.522,-268.905,382.282,216.716,37.7625,76.6413,849.721,58.7589,118.822,661.055,10.6621,123.924,453.372,-35.1884,173.267,243.737,-109.345,213.954,200.227,108.254,181.999,193.759
167,0,40.3973,408.646,1125.45,55.0673,136.208,1133.08,-159.816,311.956,1190.74,-150.945,207.036,1193.09,28.2099,481.422,845.195,48.3512,469.566,648.253,-81.6171,459.243,498.552,-264.661,401.248,375.884,-331.539,344.216,408.046,-255.888,384.393,220.095,33.297,76.146,849.048,53.0067,118.178,660.036,3.59962,123.642,452.742,-43.9124,173.006,243.509,-118.312,213.89,200.337,99.1423,181.864,193.505
168,0,39.4003,407.913,1125.63,53.8106,135.27,1132.65,-160.773,311.241,1190.97,-151.923,206.373,1193.47,31.8308,481.512,846.583,57.497,469.65,650.636,-70.9848,459.51,500.704,-254.039,401.67,377.653,-322.126,344.347,407.744,-240.424,386.633,222.874,28.8693,75.9514,848.485,47.0049,117.749,659.117,-3.64494,123.504,452.198,-52.6477,172.825,243.331,-127.285,213.892,200.501,90.0268,181.773,193.241
169,0,38.3267,407.294,1126.07,52.4613,134.431,1132.33,-161.809,310.541,1191.43,-152.962,205.736,1193.99,34.8445,481.486,848.155,66.1328,469.494,653.491,-60.4392,459.61,502.787,-242.792,402.157,378.258,-312.448,344.799,405.595,-222.769,388.922,224.963,24.4917,76.0221,848.007,40.7975,117.531,658.305,-11.0478,123.509,451.744,-61.4118,172.725,243.215,-136.283,213.946,200.739,80.8896,181.717,192.975
170,0,37.1875,406.787,1126.77,51.0372,133.693,1132.1,-162.91,309.858,1192.12,-154.046,205.128,1194.66,37.306,481.346,849.876,74.2446,469.111,656.764,-49.9909,459.557,504.742,-230.905,402.721,377.646,-302.359,345.55,401.624,-203.217,391.195,226.326,20.1683,76.3174,847.592,34.4276,117.515,657.604,-18.5837,123.649,451.39,-70.2169,172.698,243.177,-145.319,214.04,201.072,71.7172,181.689,192.716
171,0,35.9948,406.386,1127.71,49.5565,133.062,1131.97,-164.065,309.195,1193.01,-155.163,204.548,1195.47,39.2852,481.099,851.718,81.8211,468.515,660.39,-39.6395,459.37,506.513,-218.363,403.37,375.801,-291.698,346.572,395.898,-182.078,393.402,226.978,15.9002,76.7954,847.226,27.9361,117.684,657.02,-26.227,123.912,451.145,-79.0691,172.737,243.233,-154.398,214.165,201.525,62.4991,181.681,192.468
172,0,34.7614,406.088,1128.9,48.0375,132.538,1131.94,-165.258,308.561,1194.1,-156.297,204.001,1196.4,40.8584,480.754,853.662,88.8492,467.727,664.292,-29.3781,459.076,508.048,-205.149,404.113,372.745,-280.314,347.829,388.521,-159.66,395.517,226.984,11.6882,77.4152,846.903,21.3598,118.015,656.56,-33.9541,124.28,451.018,-87.9697,172.833,243.399,-163.523,214.311,202.121,53.228,181.687,192.236
173,0,33.5009,405.886,1130.3,46.4984,132.123,1132,-166.476,307.962,1195.37,-157.435,203.49,1197.45,42.0997,480.326,855.694,95.3116,466.769,668.389,-19.1975,458.707,509.306,-191.249,404.954,368.542,-268.075,349.283,379.628,-136.248,397.53,226.445,7.53372,78.1395,846.627,14.732,118.479,656.229,-41.7428,124.734,451.021,-96.9152,172.975,243.694,-172.688,214.469,202.881,43.8993,181.702,192.018
174,0,32.228,405.774,1131.9,44.9567,131.817,1132.15,-167.703,307.408,1196.8,-158.563,203.022,1198.61,43.0738,479.834,857.805,101.185,465.666,672.591,-9.09044,458.295,510.255,-176.653,405.894,363.286,-254.874,350.896,369.387,-112.1,399.447,225.485,3.43774,78.9348,846.408,8.08177,119.046,656.033,-49.5733,125.25,451.162,-105.899,173.152,244.131,-181.888,214.636,203.827,34.511,181.721,191.81
175,0,30.9584,405.747,1133.66,43.4293,131.619,1132.38,-168.925,306.908,1198.36,-159.67,202.604,1199.85,43.8313,479.301,859.988,106.44,464.446,676.809,0.944745,457.874,510.876,-161.358,406.93,357.108,-240.641,352.635,357.992,-87.434,401.28,224.247,-0.600816,79.7729,846.264,1.43505,119.684,655.975,-57.4273,125.807,451.449,-114.909,173.353,244.725,-191.113,214.806,204.976,25.0627,181.741,191.608
176,0,29.7086,405.8,1135.57,41.9323,131.527,1132.7,-170.125,306.474,1200.03,-160.743,202.244,1201.18,44.4074,478.754,862.238,111.042,463.138,680.953,10.9011,457.473,511.163,-145.368,408.051,350.163,-225.339,354.468,345.663,-62.4354,403.04,222.873,-4.58675,80.6303,846.212,-5.18494,120.365,656.057,-65.2872,126.382,451.89,-123.935,173.57,245.485,-200.35,214.976,206.342,15.5562,181.756,191.407
177,0,28.4962,405.926,1137.59,40.4805,131.54,1133.08,-171.287,306.118,1201.78,-161.772,201.953,1202.56,44.8225,478.221,864.544,114.958,461.774,684.935,20.7605,457.118,511.125,-128.697,409.245,342.63,-208.965,356.372,332.641,-37.2542,404.732,221.505,-8.52914,81.4883,846.271,-11.7566,121.059,656.281,-73.1356,126.954,452.486,-132.963,173.791,246.418,-209.588,215.142,207.938,5.99421,181.765,191.199
178,0,27.3396,406.121,1139.67,39.0879,131.653,1133.54,-172.397,305.852,1203.58,-162.746,201.743,1204,45.085,477.736,866.893,118.152,460.387,688.676,30.4916,456.828,510.785,-111.379,410.491,334.7,-191.552,358.325,319.185,-12.0138,406.348,220.27,-12.4404,82.3332,846.454,-18.2592,121.742,656.643,-80.9546,127.506,453.24,-141.977,174.008,247.53,-218.813,215.302,209.772,-3.6192,181.764,190.981
179,0,26.2578,406.38,1141.79,37.7672,131.863,1134.06,-173.439,305.689,1205.4,-163.657,201.623,1205.46,45.1961,477.334,869.264,120.598,459.011,692.103,40.0494,456.617,510.178,-93.4631,411.763,326.576,-173.166,360.306,305.565,13.1814,407.866,219.283,-16.3334,83.1555,846.771,-24.6717,122.395,657.139,-88.7253,128.023,454.149,-150.965,174.211,248.821,-228.015,215.45,211.846,-13.2795,181.749,190.752
180,0,25.2698,406.7,1143.91,36.5301,132.165,1134.65,-174.399,305.641,1207.22,-164.497,201.607,1206.93,45.1546,477.049,871.63,122.274,457.682,695.157,49.3748,456.49,509.347,-75.0261,413.032,318.457,-153.903,362.293,292.055,38.236,409.25,218.636,-20.2181,83.9494,847.226,-30.973,123.004,657.763,-96.4277,128.494,455.207,-159.914,174.393,250.288,-237.181,215.579,214.161,-22.9817,181.717,190.51
181,0,24.3948,407.077,1145.99,35.3867,132.554,1135.28,-175.263,305.721,1209,-165.259,201.706,1208.38,44.9605,476.917,873.955,123.176,456.434,697.789,58.396,456.448,508.345,-56.1728,414.264,310.539,-133.893,364.255,278.922,63.0532,410.453,218.405,-24.0968,84.7131,847.813,-37.1407,123.562,658.502,-104.041,128.91,456.406,-168.812,174.545,251.927,-246.304,215.682,216.712,-32.7212,181.666,190.26
182,0,23.6511,407.508,1148,34.3461,133.024,1135.97,-176.019,305.938,1210.7,-165.937,201.932,1209.8,44.6187,476.968,876.201,123.312,455.3,699.966,67.0313,456.488,507.225,-37.0412,415.423,302.997,-113.302,366.152,266.416,87.5246,411.427,218.642,-27.9606,85.4475,848.524,-43.1516,124.066,659.345,-111.544,129.268,457.734,-177.653,174.66,253.728,-255.376,215.748,219.49,-42.4933,181.593,190.009
183,0,23.056,407.989,1149.91,33.4161,133.571,1136.69,-176.656,306.302,1212.3,-166.527,202.293,1211.16,44.1403,477.23,878.323,122.709,454.307,701.67,75.1924,456.6,506.041,-17.8043,416.47,295.984,-92.3315,367.934,254.761,111.522,412.125,219.378,-31.7865,86.1565,849.341,-48.9812,124.518,660.272,-118.916,129.565,459.176,-186.43,174.729,255.682,-264.394,215.766,222.483,-52.2941,181.498,189.763
184,0,22.6249,408.52,1151.68,32.6029,134.188,1137.44,-177.164,306.822,1213.78,-167.025,202.8,1212.44,43.5424,477.72,880.276,121.412,453.48,702.897,82.7892,456.773,504.836,1.33024,417.372,289.621,-71.2197,369.539,244.14,134.89,412.514,220.616,-35.5375,86.8465,850.242,-54.6037,124.923,661.265,-126.135,129.803,460.714,-195.141,174.746,257.775,-273.357,215.723,225.675,-62.1202,181.379,189.531
185,0,22.3711,409.096,1153.29,31.9114,134.87,1138.2,-177.536,307.502,1215.09,-167.427,203.458,1213.61,42.8476,478.446,882.016,119.485,452.835,703.656,89.7347,456.995,503.647,20.1226,418.094,283.989,-50.2437,370.9,234.688,157.443,412.582,222.331,-39.1632,87.5256,851.2,-59.9919,125.293,662.3,-133.182,129.984,462.329,-203.788,174.703,259.993,-282.267,215.604,229.046,-71.969,181.236,189.322
186,0,22.3048,409.717,1154.72,31.3446,135.613,1138.97,-177.766,308.348,1216.23,-167.733,204.272,1214.65,42.0817,479.4,883.497,117.008,452.38,703.969,95.9502,457.248,502.492,38.307,418.612,279.128,-29.7145,371.95,226.486,178.965,412.339,224.463,-42.6038,88.2041,852.185,-65.1168,125.636,663.351,-140.038,130.111,463.998,-212.371,174.594,262.321,-291.127,215.395,232.578,-81.8385,181.07,189.142
187,0,22.4328,410.381,1155.94,30.9043,136.412,1139.73,-177.851,309.359,1217.18,-167.942,205.243,1215.54,41.2726,480.56,884.682,114.077,452.116,703.868,101.37,457.516,501.377,55.6,418.907,275.035,-9.97036,372.627,219.553,199.213,411.824,226.917,-45.7945,88.8934,853.164,-69.947,125.964,664.389,-146.682,130.19,465.699,-220.893,174.413,264.741,-299.94,215.084,236.249,-91.7278,180.88,188.993
188,0,22.7581,411.087,1156.95,30.59,137.263,1140.46,-177.791,310.533,1217.91,-168.054,206.372,1216.26,40.4481,481.883,885.537,110.799,452.033,703.394,105.944,457.783,500.289,71.7125,418.971,271.661,8.63323,372.891,213.85,217.926,411.094,229.556,-48.6706,89.6057,854.104,-74.4484,126.286,665.383,-153.097,130.225,467.406,-229.354,174.157,267.239,-308.709,214.658,240.04,-101.637,180.668,188.875
189,0,23.2795,411.833,1157.74,30.3994,138.162,1141.15,-177.587,311.866,1218.41,-168.073,207.652,1216.78,39.6356,483.313,886.036,107.29,452.111,702.589,109.643,458.03,499.203,86.363,418.805,268.926,25.7376,372.722,209.285,234.836,410.228,232.208,-51.173,90.3532,854.968,-78.5832,126.61,666.299,-159.259,130.218,469.094,-237.754,173.823,269.801,-317.434,214.111,243.935,-111.566,180.435,188.782
190,0,23.9912,412.62,1158.29,30.3284,139.107,1141.78,-177.245,313.351,1218.68,-168.001,209.079,1217.11,38.8615,484.777,886.166,103.67,452.327,701.502,112.457,458.238,498.081,99.2922,418.419,266.715,40.9978,372.13,205.723,249.684,409.308,234.673,-53.2519,91.1477,855.725,-82.3101,126.939,667.103,-165.145,130.175,470.74,-246.084,173.41,272.414,-326.108,213.438,247.923,-121.519,180.183,188.703
191,0,24.8828,413.445,1158.61,30.3705,140.095,1142.33,-176.773,314.976,1218.71,-167.843,210.641,1217.21,38.1514,486.198,885.923,100.058,452.648,700.181,114.4,458.392,496.881,110.278,417.832,264.9,54.1014,371.154,202.999,262.238,408.415,236.733,-54.8694,91.9988,856.34,-85.5831,127.275,667.758,-170.727,130.097,472.32,-254.329,172.921,275.071,-334.715,212.642,252,-131.499,179.914,188.623
192,0,25.9395,414.31,1158.69,30.5174,141.123,1142.79,-176.181,316.728,1218.52,-167.607,212.326,1217.09,37.5302,487.493,885.318,96.5654,453.041,698.67,115.503,458.475,495.559,119.147,417.069,263.345,64.788,369.858,200.936,272.313,407.616,238.178,-56.0006,92.9132,856.785,-88.3523,127.615,668.23,-175.973,129.986,473.812,-262.467,172.361,277.767,-343.232,211.731,256.172,-141.512,179.633,188.524
193,0,27.1419,415.212,1158.56,30.7587,142.19,1143.15,-175.484,318.591,1218.09,-167.299,214.12,1216.75,37.022,488.589,884.377,93.2952,453.472,697.014,115.82,458.474,494.077,125.789,416.157,261.922,72.8673,368.328,199.362,279.786,406.956,238.822,-56.6323,93.8937,857.032,-90.5642,127.951,668.484,-180.843,129.844,475.199,-270.462,171.738,280.504,-351.619,210.721,260.454,-151.563,179.344,188.389
194,0,28.4669,416.152,1158.22,31.0821,143.294,1143.37,-174.695,320.548,1217.45,-166.931,216.004,1216.17,36.6484,489.428,883.137,90.3336,453.908,695.251,115.418,458.382,492.408,130.161,415.126,260.519,78.2348,366.656,198.123,284.615,406.452,238.527,-56.7617,94.938,857.057,-92.1626,128.273,668.489,-185.292,129.671,476.466,-278.27,171.063,283.289,-359.824,209.635,264.873,-161.659,179.056,188.2
195,0,29.8878,417.129,1157.68,31.4734,144.433,1143.46,-173.835,322.577,1216.6,-166.512,217.959,1215.37,36.427,489.975,881.652,87.7478,454.325,693.417,114.379,458.194,490.54,132.292,414.003,259.056,80.882,364.938,197.097,286.848,406.096,237.225,-56.3925,96.0381,856.841,-93.091,128.57,668.219,-189.272,129.468,477.605,-285.834,170.348,286.137,-367.78,208.502,269.465,-171.805,178.779,187.949
196,0,31.3748,418.141,1156.97,31.9173,145.604,1143.4,-172.923,324.658,1215.58,-166.056,219.967,1214.36,36.368,490.226,879.983,85.5825,454.705,691.542,112.795,457.914,488.477,132.279,412.816,257.481,80.9009,363.259,196.199,286.624,405.855,234.929,-55.5324,97.1805,856.372,-93.2943,128.827,667.653,-192.727,129.233,478.614,-293.087,169.609,289.069,-375.403,207.356,274.278,-182.001,178.523,187.634
197,0,32.8965,419.186,1156.1,32.3969,146.805,1143.19,-171.98,326.769,1214.39,-165.576,222.005,1213.14,36.4707,490.208,878.199,83.8579,455.04,689.654,110.758,457.551,486.241,130.284,411.588,255.78,78.4793,361.686,195.38,284.169,405.679,231.736,-54.1901,98.3461,855.641,-92.7221,129.031,666.78,-195.599,128.966,479.498,-299.954,168.863,292.112,-382.601,206.238,279.363,-192.239,178.303,187.267
198,0,34.4198,420.263,1155.1,32.8949,148.031,1142.82,-171.028,328.887,1213.07,-165.086,224.054,1211.75,36.7208,489.979,876.367,82.5687,455.33,687.776,108.364,457.123,483.871,126.52,410.344,253.969,73.8887,360.268,194.624,279.783,405.514,227.818,-52.3734,99.5113,854.651,-91.3321,129.169,665.597,-197.831,128.667,480.268,-306.354,168.128,295.3,-389.269,205.186,284.778,-202.503,178.132,186.874
199,0,35.9118,421.367,1153.99,33.3935,149.28,1142.3,-170.091,330.99,1211.64,-164.6,226.092,1210.19,37.0875,489.623,874.551,81.6848,455.586,685.929,105.698,456.652,481.418,121.237,409.106,252.091,67.4643,359.032,193.94,273.808,405.31,223.408,-50.0888,100.65,853.412,-89.0934,129.232,664.115,-199.366,128.334,480.946,-312.202,167.42,298.669,-395.3,204.242,290.575,-212.758,178.021,186.499
200,0,37.3399,422.497,1152.81,33.8747,150.545,1141.62,-169.191,333.057,1210.13,-164.135,228.1,1208.49,37.5234,489.237,872.805,81.1533,455.827,684.13,102.833,456.166,478.94,114.704,407.897,250.204,59.5787,357.988,193.347,266.611,405.031,218.77,-47.3425,101.734,851.944,-85.9896,129.213,662.354,-200.156,127.966,481.557,-317.417,166.757,302.255,-400.586,203.442,296.802,-222.952,177.981,186.2
201,0,38.6733,423.647,1151.56,34.3213,151.822,1140.81,-168.35,335.068,1208.57,-163.706,230.06,1206.68,37.9668,488.926,871.168,80.9009,456.077,682.393,99.8266,455.7,476.498,107.196,406.742,248.375,50.6134,357.132,192.87,258.546,404.658,214.169,-44.1431,102.739,850.28,-82.0217,129.11,660.35,-200.158,127.562,482.137,-321.921,166.153,306.095,-405.031,202.818,303.492,-233.009,178.016,186.054
202,0,39.8837,424.814,1150.29,34.7168,153.104,1139.86,-167.589,337.005,1206.99,-163.327,231.956,1204.79,38.3453,488.783,869.666,80.8385,456.365,680.729,96.7133,455.285,474.147,98.9723,405.666,246.667,40.9306,356.449,192.524,249.928,404.194,209.843,-40.5042,103.641,848.464,-77.21,128.926,658.15,-199.342,127.121,482.724,-325.645,165.62,310.217,-408.547,202.393,310.66,-242.827,178.124,186.145
203,0,40.9461,425.992,1149,35.0461,154.384,1138.81,-166.927,338.854,1205.41,-163.011,233.775,1202.85,38.5826,488.884,868.307,80.8661,456.718,679.146,93.5063,454.955,471.934,90.2669,404.693,245.136,30.8497,355.919,192.318,241.018,403.663,205.981,-36.4496,104.422,846.549,-71.5944,128.668,655.814,-197.693,126.645,483.358,-328.531,165.168,314.644,-411.07,202.181,318.294,-252.278,178.297,186.562
204,0,41.8395,427.177,1147.73,35.2955,155.656,1137.67,-166.381,340.6,1203.86,-162.773,235.504,1200.89,38.6051,489.279,867.086,80.878,457.162,677.648,90.1972,454.738,469.891,81.2782,403.844,243.817,20.6308,355.522,192.244,232.007,403.097,202.706,-32.0158,105.073,844.596,-65.2338,128.347,653.409,-195.206,126.135,484.082,-330.533,164.804,319.384,-412.555,202.188,326.359,-261.206,178.516,187.394
205,0,42.5472,428.363,1146.5,35.4532,156.912,1136.47,-165.966,342.234,1202.37,-162.623,237.135,1198.95,38.3494,489.985,865.988,80.769,457.718,676.235,86.759,454.657,468.037,72.1633,403.136,242.729,10.466,355.237,192.287,223.019,402.537,200.069,-27.2559,105.591,842.671,-58.2044,127.979,651.012,-191.898,125.594,484.936,-331.621,164.53,324.43,-412.988,202.407,334.786,-269.433,178.758,188.715
206,0,43.0576,429.545,1145.31,35.5093,158.146,1135.24,-165.692,343.749,1200.95,-162.572,238.661,1197.05,37.7681,490.989,864.993,80.4392,458.397,674.904,83.1517,454.725,466.377,63.0379,402.58,241.873,0.48013,355.044,192.421,214.117,402.018,198.06,-22.2399,105.981,840.841,-50.5958,127.582,648.704,-187.795,125.029,485.954,-331.779,164.346,329.757,-412.376,202.825,343.477,-276.767,178.994,190.581
207,0,43.3636,430.719,1144.19,35.4563,159.35,1134.01,-165.569,345.142,1199.64,-162.627,240.081,1195.22,36.8333,492.25,864.081,79.8,459.204,673.65,79.3285,454.944,464.901,53.9786,402.179,241.233,-9.2629,354.928,192.62,205.316,401.57,196.616,-17.0543,106.257,839.169,-42.507,127.177,646.564,-182.94,124.447,487.162,-331.003,164.25,335.321,-410.755,203.416,352.307,-283.003,179.192,193.02
208,0,43.4633,431.88,1143.15,35.2884,160.518,1132.81,-165.603,346.412,1198.43,-162.796,241.392,1193.49,35.5385,493.707,863.234,78.7777,460.132,672.466,75.243,455.306,463.592,45.0286,401.924,240.78,-18.7484,354.87,192.858,196.601,401.209,195.639,-11.798,106.437,837.708,-34.0416,126.783,644.672,-177.386,123.862,488.581,-329.303,164.236,341.059,-408.178,204.152,361.126,-287.943,179.323,196.024
209,0,43.3592,433.022,1142.19,35.002,161.644,1131.67,-165.795,347.561,1197.36,-163.081,242.595,1191.89,33.8966,495.284,862.441,77.317,461.163,671.343,70.8553,455.791,462.427,36.2045,401.802,240.478,-27.9971,354.855,193.115,187.941,400.942,195.016,-6.57766,106.546,836.505,-25.3031,126.421,643.1,-171.194,123.286,490.215,-326.696,164.296,346.886,-404.716,204.997,369.763,-291.395,179.361,199.55
210,0,43.0578,434.142,1141.33,34.5957,162.723,1130.63,-166.145,348.595,1196.43,-163.487,243.696,1190.45,31.9366,496.901,861.698,75.3827,462.271,670.274,66.1374,456.369,461.38,27.5042,401.788,240.29,-37.051,354.87,193.378,179.302,400.761,194.635,-1.49938,106.609,835.591,-16.3906,126.109,641.91,-164.432,122.739,492.061,-323.208,164.421,352.703,-400.45,205.913,378.039,-293.195,179.289,203.518
211,0,42.5696,435.236,1140.56,34.0697,163.751,1129.71,-166.65,349.52,1195.65,-164.014,244.697,1189.18,29.6984,498.484,861.006,72.9603,463.422,669.251,61.0759,457.005,460.429,18.9133,401.854,240.18,-45.9614,354.901,193.639,170.654,400.652,194.397,3.33882,106.65,834.985,-7.39514,125.863,641.157,-157.171,122.239,494.102,-318.871,164.599,358.396,-395.464,206.862,385.766,-293.208,179.101,207.812
212,0,41.9077,436.298,1139.89,33.4258,164.723,1128.95,-167.304,350.345,1195.03,-164.66,245.607,1188.11,27.2269,499.963,860.368,70.0543,464.575,668.27,55.6727,457.655,459.556,10.4113,401.97,240.118,-54.779,354.933,193.901,161.977,400.596,194.222,7.85524,106.694,834.695,1.60219,125.696,640.878,-149.482,121.806,496.31,-313.719,164.82,363.839,-389.84,207.806,392.763,-291.339,178.803,212.295
213,0,41.0876,437.324,1139.32,32.6675,165.637,1128.36,-168.099,351.08,1194.57,-165.424,246.432,1187.24,24.5668,501.286,859.792,66.686,465.687,667.327,49.9438,458.277,458.747,1.97592,402.102,240.078,-63.5476,354.957,194.17,153.262,400.571,194.056,11.9912,106.757,834.719,10.5312,125.618,641.101,-141.435,121.46,498.648,-307.789,165.07,368.903,-383.651,208.711,398.854,-287.537,178.415,216.809
214,0,40.1262,438.31,1138.84,31.7996,166.49,1127.97,-169.023,351.737,1194.27,-166.3,247.181,1186.6,21.7581,502.411,859.282,62.8897,466.715,666.422,43.9162,458.828,457.998,-6.41387,402.224,240.045,-72.3002,354.961,194.454,144.509,400.557,193.868,15.7157,106.852,835.049,19.3322,125.634,641.835,-133.097,121.218,501.069,-301.117,165.337,373.458,-376.958,209.545,403.884,-281.793,177.964,221.193
215,0,39.0411,439.25,1138.46,30.828,167.281,1127.79,-170.067,352.325,1194.14,-167.284,247.861,1186.18,18.8332,503.315,858.843,58.7082,467.619,665.558,37.624,459.273,457.306,-14.7765,402.31,240.012,-81.0583,354.937,194.765,135.724,400.534,193.646,19.0268,106.986,835.673,27.9543,125.747,643.08,-124.532,121.093,503.523,-293.738,165.61,377.381,-369.807,210.284,407.717,-274.142,177.486,225.292
216,0,37.8501,440.14,1138.17,29.7597,168.007,1127.84,-171.217,352.856,1194.17,-168.369,248.48,1186,15.8155,503.986,858.474,54.188,468.364,664.739,31.1039,459.581,456.674,-23.1274,402.343,239.976,-89.833,354.879,195.109,126.914,400.491,193.393,21.9506,107.159,836.58,36.3537,125.958,644.82,-115.796,121.096,505.953,-285.686,165.879,380.556,-362.226,210.908,410.242,-264.653,177.018,228.97
217,0,36.5701,440.973,1137.97,28.603,168.669,1128.12,-172.46,353.34,1194.35,-169.547,249.046,1186.05,12.7194,504.427,858.171,49.3747,468.924,663.97,24.3915,459.733,456.109,-31.4793,402.312,239.943,-98.6268,354.781,195.495,118.086,400.417,193.119,24.5362,107.366,837.76,44.4904,126.263,647.028,-106.942,121.229,508.301,-276.99,166.133,382.887,-354.227,211.404,411.376,-253.427,176.593,232.115
218,0,35.217,441.745,1137.85,27.3666,169.267,1128.63,-173.781,353.784,1194.7,-170.81,249.565,1186.34,9.55136,504.647,857.929,44.3095,469.284,663.26,17.5179,459.719,455.618,-39.843,402.214,239.919,-107.437,354.64,195.924,109.246,400.308,192.84,26.8489,107.598,839.206,52.3264,126.657,649.666,-98.015,121.488,510.512,-267.675,166.367,384.292,-345.801,211.767,411.066,-240.587,176.238,234.647
219,0,33.8048,442.448,1137.8,26.0604,169.799,1129.37,-175.169,354.197,1195.2,-172.149,250.041,1186.85,6.31124,504.665,857.741,39.026,469.438,662.616,10.5076,459.542,455.208,-48.2282,402.05,239.917,-116.257,354.456,196.399,100.393,400.16,192.57,28.9615,107.844,840.912,59.8235,127.132,652.686,-89.0553,121.865,512.529,-257.761,166.573,384.714,-336.927,211.999,409.291,-226.267,175.968,236.522
220,0,32.3458,443.079,1137.84,24.6953,170.266,1130.33,-176.608,354.581,1195.84,-173.555,250.478,1187.59,2.99363,504.503,857.6,33.5491,469.391,662.046,3.37798,459.212,454.887,-56.6443,401.831,239.949,-125.082,354.23,196.92,91.5245,399.977,192.321,30.9452,108.09,842.875,66.9417,127.679,656.035,-80.0963,122.342,514.303,-247.262,166.749,384.12,-327.565,212.107,406.057,-210.612,175.784,237.729
221,0,30.85,443.631,1137.94,23.2825,170.669,1131.5,-178.087,354.941,1196.62,-175.015,250.879,1188.52,-0.411117,504.186,857.502,27.8943,469.158,661.56,-3.86104,458.748,454.662,-65.1005,401.567,240.028,-133.907,353.969,197.485,82.6337,399.76,192.098,32.8613,108.323,845.089,73.6391,128.287,659.652,-71.1655,122.899,515.788,-236.185,166.893,382.504,-317.669,212.105,401.404,-193.762,175.676,238.287
222,0,29.3253,444.101,1138.1,21.8345,171.008,1132.86,-179.595,355.276,1197.53,-176.521,251.243,1189.65,-3.91619,503.741,857.444,22.0688,468.764,661.165,-11.2054,458.177,454.536,-73.6058,401.275,240.169,-142.73,353.681,198.097,73.7126,399.517,191.902,34.754,108.531,847.547,79.8716,128.945,663.47,-62.2851,123.511,516.946,-224.533,167.004,379.882,-307.181,212.009,395.398,-175.858,175.621,238.243
223,0,27.7775,444.485,1138.33,20.3641,171.285,1134.39,-181.119,355.583,1198.57,-178.059,251.568,1190.95,-7.53793,503.195,857.428,16.0731,468.238,660.869,-18.6554,457.528,454.513,-82.1685,400.971,240.384,-151.555,353.376,198.759,64.753,399.253,191.73,36.6469,108.703,850.232,85.5944,129.641,667.421,-53.4726,124.149,517.749,-212.301,167.083,376.301,-296.04,211.839,388.134,-157.029,175.587,237.663
224,0,26.2104,444.781,1138.62,18.8851,171.502,1136.08,-182.651,355.859,1199.72,-179.619,251.851,1192.41,-11.2953,502.571,857.456,9.90336,467.615,660.677,-26.2134,456.832,454.596,-90.7959,400.67,240.684,-160.386,353.069,199.48,55.7472,398.977,191.573,38.5408,108.83,853.124,90.7633,130.359,671.437,-44.742,124.787,518.176,-199.486,167.131,371.827,-284.188,211.614,379.733,-137.4,175.541,236.628
225,0,24.6264,444.99,1138.96,17.4116,171.661,1137.88,-184.181,356.096,1200.98,-181.188,252.086,1194,-15.2089,501.891,857.535,3.55406,466.931,660.596,-33.8821,456.121,454.787,-99.4927,400.385,241.081,-169.232,352.776,200.271,46.6897,398.698,191.423,40.4159,108.905,856.192,95.3364,131.086,675.445,-36.1049,125.396,518.219,-186.081,167.149,366.553,-271.569,211.351,370.34,-117.084,175.45,235.227
226,0,23.0266,445.111,1139.34,15.9582,171.763,1139.79,-185.702,356.286,1202.32,-182.753,252.267,1195.7,-19.2996,501.176,857.673,-2.97915,466.221,660.629,-41.6624,455.423,455.085,-108.261,400.129,241.582,-178.105,352.512,201.149,37.5772,398.422,191.268,42.2355,108.924,859.396,99.2764,131.806,679.38,-27.5727,125.951,517.881,-172.083,167.137,360.59,-258.141,211.065,360.116,-96.1876,175.288,233.552
227,0,21.4113,445.148,1139.78,14.5397,171.813,1141.77,-187.207,356.418,1203.75,-184.301,252.385,1197.49,-23.5861,500.442,857.878,-9.69714,465.516,660.779,-49.5524,454.76,455.491,-117.1,399.906,242.193,-187.014,352.291,202.131,28.4085,398.159,191.101,43.9519,108.882,862.69,102.552,132.504,683.177,-19.1575,126.429,517.177,-157.5,167.095,354.064,-243.878,210.764,349.243,-74.8141,175.037,231.699
228,0,19.7807,445.106,1140.26,13.1709,171.814,1143.8,-188.689,356.48,1205.24,-185.82,252.43,1199.34,-28.082,499.7,858.158,-16.5951,464.843,661.045,-57.546,454.151,456.005,-126.005,399.722,242.918,-195.971,352.123,203.237,19.1841,397.913,190.916,45.5129,108.776,866.019,105.142,133.164,686.777,-10.8745,126.813,516.135,-142.348,167.021,347.116,-228.776,210.452,337.911,-53.0635,174.691,229.758
229,0,18.1349,444.99,1140.78,11.8665,171.769,1145.85,-190.143,356.46,1206.79,-187.295,252.392,1201.22,-32.7925,498.959,858.518,-23.6608,464.222,661.426,-65.633,453.607,456.625,-134.968,399.573,243.758,-204.985,352.014,204.483,9.9055,397.691,190.707,46.8683,108.604,869.325,107.033,133.77,690.127,-2.74269,127.09,514.793,-126.662,166.913,339.896,-212.857,210.13,326.318,-31.0381,174.255,227.82
230,0,16.4749,444.81,1141.34,10.6407,171.684,1147.89,-191.562,356.345,1208.36,-188.715,252.261,1203.11,-37.7117,498.224,858.964,-30.8737,463.666,661.919,-73.7982,453.132,457.349,-143.979,399.455,244.712,-214.059,351.961,205.883,0.574059,397.494,190.476,47.9757,108.362,872.548,108.224,134.308,693.184,5.21343,127.25,513.201,-110.497,166.767,332.558,-196.175,209.79,314.663,-8.84622,173.746,225.972
231,0,14.8028,444.573,1141.93,9.50728,171.562,1149.9,-192.943,356.122,1209.96,-190.066,252.026,1204.99,-42.8199,497.498,859.495,-38.2043,463.178,662.517,-82.0225,452.723,458.174,-153.026,399.358,245.776,-223.193,351.957,207.447,-8.80981,397.324,190.224,48.8038,108.046,875.629,108.726,134.764,695.912,12.9639,127.29,511.417,-93.9321,166.579,325.254,-178.818,209.425,303.14,13.3943,173.187,224.292
232,0,13.1218,444.288,1142.55,8.47889,171.407,1151.87,-194.28,355.779,1211.54,-191.335,251.676,1206.83,-48.0819,496.78,860.109,-45.6139,462.757,663.213,-90.2822,452.372,459.094,-162.097,399.271,246.947,-232.382,351.984,209.176,-18.2473,397.177,189.956,49.3344,107.65,878.513,108.566,135.127,698.287,20.4729,127.213,509.504,-77.0743,166.347,318.131,-160.912,209.023,291.932,35.5524,172.607,222.853
233,0,11.4369,443.965,1143.19,7.56717,171.224,1153.75,-195.566,355.304,1213.11,-192.513,251.203,1208.61,-53.4475,496.066,860.8,-53.0554,462.393,663.993,-98.55,452.067,460.103,-171.18,399.181,248.22,-241.616,352.023,211.07,-27.7418,397.048,189.677,49.5622,107.167,881.146,107.781,135.391,700.295,27.6996,127.024,507.526,-60.0565,166.066,311.323,-142.617,208.573,281.208,57.4811,172.038,221.717
234,0,9.75503,443.612,1143.86,6.7824,171.016,1155.55,-196.798,354.69,1214.63,-193.587,250.597,1210.29,-58.8522,495.354,861.556,-60.474,462.07,664.846,-106.795,451.792,461.191,-180.264,399.075,249.589,-250.88,352.049,213.122,-37.2982,396.931,189.392,49.4924,106.59,883.486,106.424,135.552,701.933,34.599,126.736,505.546,-43.0388,165.736,304.949,-124.127,208.067,271.114,79.0162,171.51,220.929
235,0,8.08479,443.237,1144.54,6.13333,170.787,1157.23,-197.968,353.927,1216.09,-194.548,249.853,1211.87,-64.2203,494.636,862.365,-67.8082,461.771,665.754,-114.983,451.53,462.349,-189.339,398.941,251.051,-260.16,352.038,215.324,-46.923,396.818,189.107,49.1379,105.913,885.494,104.56,135.61,703.207,41.1232,126.361,503.622,-26.2056,165.359,299.105,-105.67,207.499,261.774,99.976,171.052,220.514
236,0,6.43665,442.846,1145.23,5.62698,170.537,1158.79,-199.072,353.012,1217.45,-195.388,248.966,1213.31,-69.4685,493.909,863.207,-74.9919,461.475,666.699,-123.077,451.264,463.564,-198.398,398.772,252.601,-269.438,351.971,217.665,-56.6232,396.699,188.827,48.5157,105.129,887.142,102.264,135.574,704.133,47.2229,125.92,501.802,-9.76127,164.94,293.864,-87.4976,206.87,253.279,120.163,170.688,220.474
237,0,4.82273,442.445,1145.93,5.2685,170.269,1160.2,-200.104,351.942,1218.71,-196.101,247.934,1214.61,-74.5105,493.166,864.063,-81.9556,461.159,667.66,-131.039,450.978,464.822,-207.433,398.563,254.237,-278.698,351.833,220.139,-66.4047,396.565,188.556,47.644,104.24,888.409,99.6224,135.454,704.735,52.8484,125.434,500.123,6.07523,164.486,289.267,-69.8787,206.183,245.694,139.367,170.442,220.782
238,0,3.25652,442.035,1146.62,5.06101,169.982,1161.46,-201.057,350.719,1219.83,-196.682,246.756,1215.73,-79.2619,492.402,864.91,-88.6285,460.803,668.615,-138.829,450.661,466.108,-216.441,398.316,255.957,-287.928,351.622,222.738,-76.2711,396.41,188.295,46.5414,103.251,889.287,96.726,135.266,705.042,57.9513,124.926,498.607,21.0776,164.011,285.33,-53.0935,205.452,239.048,157.371,170.332,221.378
239,0,1.75251,441.615,1147.3,5.0055,169.673,1162.56,-201.926,349.345,1220.8,-197.128,245.436,1216.68,-83.645,491.613,865.725,-94.9402,460.393,669.541,-146.405,450.305,467.405,-225.415,398.039,257.763,-297.119,351.345,225.461,-86.223,396.229,188.048,45.2264,102.179,889.776,93.6682,135.033,705.085,62.4851,124.422,497.26,35.0202,163.532,282.034,-37.4209,204.695,233.341,173.958,170.373,222.178
240,0,0.32572,441.184,1147.96,5.10074,169.34,1163.49,-202.706,347.827,1221.6,-197.439,243.979,1217.42,-87.5926,490.795,866.483,-100.823,459.915,670.413,-153.728,449.909,468.698,-234.353,397.744,259.654,-306.264,351.023,228.311,-96.2562,396.019,187.815,43.72,101.047,889.889,90.5405,134.778,704.899,66.4058,123.948,496.073,47.686,163.071,279.336,-23.1291,203.937,228.539,188.919,170.58,223.07
241,0,-1.0088,440.734,1148.59,5.34321,168.979,1164.23,-203.393,346.176,1222.21,-197.615,242.393,1217.96,-91.052,489.946,867.162,-106.212,459.364,671.205,-160.758,449.475,469.97,-243.247,397.45,261.634,-315.362,350.684,231.295,-106.362,395.782,187.598,42.0493,99.8949,889.651,87.4278,134.525,704.514,69.6726,123.528,495.023,58.8758,162.652,277.165,-10.4642,203.208,224.585,202.06,170.961,223.925
242,0,-2.23658,440.26,1149.17,5.72702,168.583,1164.79,-203.983,344.402,1222.61,-197.661,240.687,1218.28,-93.9859,489.064,867.74,-111.047,458.74,671.893,-167.457,449.013,471.205,-252.089,397.176,263.706,-324.414,350.368,234.423,-116.528,395.519,187.397,40.2513,98.7681,889.096,84.404,134.299,703.958,72.2484,123.186,494.075,68.416,162.302,275.433,0.3597,202.541,221.396,213.217,171.52,224.608
243,0,-3.3443,439.751,1149.7,6.24395,168.145,1165.17,-204.475,342.521,1222.79,-197.582,238.874,1218.38,-96.3733,488.151,868.197,-115.275,458.053,672.452,-173.789,448.536,472.387,-260.867,396.947,265.874,-333.421,350.117,237.711,-126.736,395.236,187.213,38.3764,97.7215,888.272,81.528,134.121,703.254,74.1006,122.94,493.182,76.1664,162.048,274.038,9.17044,201.972,218.872,222.257,172.252,224.987
244,0,-4.32041,439.196,1150.15,6.88339,167.657,1165.36,-204.867,340.549,1222.75,-197.388,236.968,1218.26,-98.208,487.209,868.516,-118.847,457.318,672.859,-179.72,448.062,473.504,-269.561,396.784,268.145,-342.384,349.975,241.178,-136.97,394.935,187.047,36.4903,96.8128,887.231,78.8407,134.006,702.417,75.202,122.806,492.293,82.026,161.915,272.871,15.8453,201.534,216.901,229.095,173.144,224.951
245,0,-5.15572,438.583,1150.53,7.63236,167.111,1165.36,-205.161,338.504,1222.46,-197.089,234.985,1217.91,-99.4959,486.243,868.682,-121.721,456.559,673.09,-185.218,447.612,474.544,-278.147,396.705,270.524,-351.298,349.981,244.844,-147.21,394.622,186.898,34.6728,96.0967,886.028,76.3625,133.962,701.453,75.532,122.791,491.353,85.938,161.925,271.826,20.317,201.257,215.366,233.692,174.174,224.418
246,0,-5.84389,437.899,1150.8,8.47562,166.497,1165.18,-205.36,336.405,1221.94,-196.697,232.94,1217.34,-100.252,485.263,868.681,-123.86,455.804,673.126,-190.25,447.21,475.499,-286.586,396.726,273.019,-360.147,350.165,248.736,-157.438,394.297,186.763,33.0126,95.6178,884.718,74.0939,133.99,700.365,75.0788,122.897,490.313,87.8923,162.092,270.802,22.5768,201.161,214.152,236.066,175.309,223.344
247,0,-6.38187,437.132,1150.97,9.39575,165.806,1164.81,-205.469,334.272,1221.18,-196.228,230.852,1216.56,-100.494,484.281,868.502,-125.234,455.088,672.949,-194.784,446.877,476.365,-294.83,396.856,275.64,-368.901,350.543,252.882,-167.643,393.96,186.637,31.5993,95.4035,883.346,72.0157,134.081,699.148,73.841,123.118,489.125,87.9266,162.424,269.717,22.6748,201.261,213.152,236.286,176.506,221.729
248,0,-6.77022,436.271,1151.01,10.3733,165.029,1164.27,-205.496,332.124,1220.19,-195.699,228.738,1215.57,-100.241,483.31,868.135,-125.815,454.448,672.546,-198.784,446.636,477.14,-302.818,397.094,278.397,-377.506,351.115,257.312,-177.814,393.606,186.51,30.5115,95.4579,881.95,70.0921,134.216,697.792,71.83,123.441,487.755,86.1247,162.919,268.504,20.7174,201.555,212.271,234.477,177.717,219.619
249,0,-7.01331,435.306,1150.92,11.387,164.16,1163.56,-205.45,329.982,1218.97,-195.126,226.616,1214.4,-99.5085,482.37,867.573,-125.584,453.924,671.909,-202.211,446.507,477.83,-310.473,397.437,281.301,-385.885,351.867,262.063,-187.95,393.231,186.372,29.8044,95.757,880.547,68.2748,134.369,696.29,69.0715,123.844,486.18,82.6124,163.564,267.122,16.8612,202.031,211.431,230.809,178.893,217.1
250,0,-7.11934,434.231,1150.69,12.4142,163.19,1162.69,-205.342,327.863,1217.54,-194.53,224.502,1213.06,-98.3057,481.48,866.811,-124.524,453.554,671.034,-205.026,446.505,478.442,-317.706,397.871,284.367,-393.932,352.762,267.171,-198.053,392.826,186.209,29.4974,96.2478,879.143,66.5076,134.508,694.632,65.6068,124.301,484.39,77.552,164.337,265.551,11.3051,202.664,210.575,225.49,179.984,214.287
251,0,-7.1002,433.043,1150.31,13.4307,162.116,1161.67,-205.187,325.785,1215.92,-193.932,222.413,1211.56,-96.6348,480.663,865.849,-122.626,453.371,669.924,-207.18,446.642,478.989,-324.414,398.379,287.61,-401.509,353.751,272.676,-208.13,392.383,186.011,29.5646,96.8498,877.725,64.7314,134.596,692.815,61.4931,124.782,482.392,71.1339,165.206,263.795,4.27861,203.416,209.663,218.756,180.947,211.317
252,0,-6.97123,431.739,1149.77,14.4119,160.933,1160.51,-204.998,323.763,1214.12,-193.352,220.364,1209.94,-94.4919,479.939,864.693,-119.885,453.405,668.592,-208.626,446.925,479.491,-330.489,398.94,291.047,-408.454,354.773,278.616,-218.191,391.893,185.77,29.9307,97.4612,876.268,62.8898,134.596,690.843,56.8025,125.252,480.205,63.5679,166.132,261.879,-3.9693,204.243,208.68,210.855,181.747,208.328
253,0,-6.75079,430.325,1149.09,15.3328,159.64,1159.22,-204.791,321.811,1212.18,-192.81,218.37,1208.22,-91.8689,479.327,863.354,-116.306,453.676,667.057,-209.312,447.357,479.969,-335.82,399.53,294.698,-414.585,355.755,285.027,-228.241,391.349,185.489,30.4733,97.9677,874.742,60.9329,134.475,688.724,51.6198,125.679,477.863,55.0727,167.073,259.841,-13.1837,205.095,207.625,202.036,182.364,205.452
254,0,-6.45968,428.806,1148.26,16.1685,158.24,1157.82,-204.585,319.939,1210.11,-192.328,216.442,1206.42,-88.7577,478.841,861.856,-111.901,454.195,665.348,-209.189,447.932,480.45,-340.303,400.125,298.583,-419.712,356.626,291.938,-238.277,390.747,185.183,31.0327,98.2542,873.116,58.8206,134.203,686.479,46.0381,126.032,475.408,45.8661,167.982,257.734,-23.1156,205.922,206.515,192.539,182.786,202.8
255,0,-6.12047,427.194,1147.29,16.895,156.735,1156.32,-204.395,318.158,1207.96,-191.925,214.592,1204.58,-85.1546,478.491,860.229,-106.696,454.962,663.501,-208.213,448.644,480.96,-343.843,400.703,302.724,-423.652,357.315,299.364,-248.275,390.086,184.891,31.4277,98.2174,871.364,56.5246,133.76,684.135,40.155,126.284,472.889,36.155,168.817,255.614,-33.5336,206.676,205.376,182.58,183.017,200.455
256,0,-5.75684,425.502,1146.2,17.4898,155.131,1154.74,-204.24,316.474,1205.75,-191.62,212.827,1202.72,-81.0656,478.278,858.514,-100.725,455.965,661.563,-206.348,449.479,481.531,-346.365,401.244,307.139,-426.247,357.762,307.307,-258.185,389.373,184.671,31.4758,97.7781,869.475,54.028,133.133,681.723,34.0659,126.416,470.359,26.1279,169.539,253.539,-44.2319,207.319,204.241,172.345,183.071,198.465
257,0,-5.39276,423.747,1144.99,17.9323,153.437,1153.1,-204.136,314.89,1203.53,-191.429,211.156,1200.88,-76.5112,478.198,856.761,-94.0359,457.178,659.585,-203.569,450.419,482.193,-347.821,401.733,311.845,-427.381,357.921,315.747,-267.916,388.618,184.606,31.0157,96.8904,867.453,51.3247,132.321,679.282,27.8589,126.415,467.869,15.9479,170.119,251.56,-55.0375,207.822,203.145,161.988,182.97,196.848
258,0,-5.05176,421.948,1143.7,18.2045,151.665,1151.42,-204.099,313.408,1201.32,-191.366,209.583,1199.08,-71.5302,478.237,855.024,-86.6896,458.569,657.626,-199.871,451.444,482.976,-348.188,402.155,316.85,-426.995,357.763,324.637,-277.332,387.842,184.796,29.926,95.5483,865.322,48.416,131.335,676.851,21.609,126.278,465.464,5.74869,170.535,249.721,-65.813,208.168,202.121,151.628,182.742,195.589
259,0,-4.75626,420.125,1142.35,18.2915,149.826,1149.71,-204.144,312.029,1199.16,-191.442,208.11,1197.36,-66.1825,478.377,853.363,-78.7584,460.093,655.751,-195.264,452.531,483.908,-347.473,402.501,322.151,-425.094,357.282,333.9,-286.242,387.07,185.357,28.1406,93.7872,863.119,45.3079,130.192,674.468,15.3735,126.007,463.185,-4.36723,170.777,248.056,-76.4575,208.353,201.196,141.349,182.419,194.652
260,0,-4.52692,418.301,1140.96,18.182,147.937,1147.99,-204.283,310.748,1197.09,-191.667,206.739,1195.74,-60.5494,478.596,851.836,-70.3251,461.701,654.026,-189.781,453.654,485.013,-345.709,402.765,327.731,-421.757,356.488,343.422,-294.403,386.339,186.4,25.6546,91.6795,860.897,42.0067,128.921,672.165,9.18873,125.616,461.063,-14.3287,170.846,246.584,-86.905,208.386,200.39,131.204,182.032,193.984
261,0,-4.38213,416.496,1139.56,17.8687,146.013,1146.29,-204.528,309.562,1195.15,-192.046,205.469,1194.25,-54.7315,478.866,850.496,-61.4814,463.338,652.517,-183.474,454.784,486.311,-342.95,402.941,333.553,-417.126,355.414,353.057,-301.524,385.689,188.022,22.5223,89.3275,858.715,38.5163,127.556,669.972,3.06924,125.12,459.117,-24.0939,170.753,245.313,-97.1203,208.285,199.714,121.221,181.608,193.522
262,0,-4.33766,414.73,1138.2,17.3482,144.072,1144.62,-204.884,308.465,1193.37,-192.58,204.297,1192.91,-48.8452,479.161,849.39,-52.3252,464.949,651.29,-176.415,455.892,487.815,-339.262,403.026,339.556,-411.394,354.105,362.626,-307.281,385.164,190.288,18.8462,86.8511,856.632,34.835,126.132,667.909,-2.99211,124.544,457.361,-33.6465,170.518,244.24,-107.094,208.075,199.172,111.408,181.173,193.206
263,0,-4.40639,413.023,1136.9,16.6218,142.132,1143,-205.359,307.448,1191.77,-193.268,203.217,1191.74,-43.0164,479.455,848.554,-42.9571,466.482,650.405,-168.69,456.949,489.532,-334.718,403.019,345.655,-404.789,352.619,371.917,-311.34,384.806,193.215,14.7599,84.3751,854.702,30.954,124.691,665.992,-9.0215,123.911,455.795,-42.9916,170.169,243.352,-116.838,207.787,198.757,101.758,180.747,192.978
264,0,-4.5982,411.391,1135.69,15.6948,140.213,1141.45,-205.955,306.505,1190.39,-194.105,202.225,1190.75,-37.373,479.724,848.013,-33.4781,467.887,649.917,-160.396,457.924,491.457,-329.391,402.919,351.742,-397.545,351.02,380.701,-313.375,384.652,196.765,10.4068,82.0163,852.965,26.8576,123.269,664.226,-15.0602,123.249,454.416,-52.1505,169.736,242.631,-126.377,207.452,198.461,92.2533,180.344,192.792
265,0,-4.91995,409.848,1134.62,14.5765,138.334,1139.98,-206.671,305.625,1189.25,-195.081,201.312,1189.96,-32.0369,479.947,847.778,-23.9855,469.123,649.872,-151.636,458.787,493.579,-323.34,402.728,357.684,-389.884,349.376,388.736,-313.102,384.722,200.841,5.91918,79.8726,851.447,22.5235,121.903,662.614,-21.1596,122.584,453.215,-61.1558,169.254,242.055,-135.746,207.1,198.268,82.8699,179.975,192.614
266,0,-5.3756,408.405,1133.7,13.2801,136.513,1138.62,-207.505,304.801,1188.37,-196.185,200.47,1189.39,-27.116,480.106,847.853,-14.571,470.155,650.308,-142.512,459.51,495.875,-316.617,402.452,363.331,-381.985,347.756,395.785,-310.304,385.022,205.292,1.40117,78.0158,850.155,17.9257,120.626,661.154,-27.3756,121.938,452.18,-70.0466,168.755,241.602,-144.983,206.758,198.163,73.5818,179.647,192.419
267,0,-5.96631,407.069,1132.98,11.8222,134.769,1137.37,-208.451,304.023,1187.76,-197.403,199.689,1189.02,-22.6969,480.19,848.228,-5.31772,470.956,651.25,-133.124,460.066,498.311,-309.254,402.1,368.522,-373.975,346.224,401.624,-304.845,385.535,209.926,-3.08304,76.4879,849.081,13.0369,119.463,659.842,-33.763,121.333,451.3,-78.864,168.27,241.253,-154.128,206.448,198.132,64.363,179.361,192.198
268,0,-6.69073,405.846,1132.47,10.2221,133.117,1136.24,-209.5,303.283,1187.43,-198.719,198.962,1188.88,-18.8396,480.188,848.889,3.70031,471.508,652.708,-123.56,460.436,500.845,-301.273,401.684,373.093,-365.914,344.836,406.059,-296.692,386.226,214.528,-7.51278,75.3022,848.201,7.83223,118.436,658.672,-40.3709,120.787,450.562,-87.6479,167.824,240.992,-163.216,206.184,198.164,55.1888,179.118,191.947
269,0,-7.5451,404.736,1132.19,8.50129,131.572,1135.25,-210.643,302.574,1187.39,-200.113,198.278,1188.96,-15.5741,480.095,849.815,12.4192,471.8,654.681,-113.899,460.605,503.425,-292.682,401.222,376.884,-357.798,343.64,408.934,-285.909,387.042,218.88,-11.907,74.4472,847.483,2.29177,117.56,657.641,-47.2385,120.31,449.959,-96.4345,167.438,240.808,-172.279,205.977,198.253,46.0368,178.916,191.673
270,0,-8.5235,403.74,1132.16,6.68272,130.149,1134.4,-211.868,301.891,1187.63,-201.566,197.631,1189.25,-12.8997,479.906,850.982,20.7844,471.83,657.151,-104.209,460.563,505.993,-283.482,400.732,379.749,-349.565,342.669,410.135,-272.654,387.927,222.784,-16.3136,73.8925,846.892,-3.59629,116.843,656.746,-54.3926,119.911,449.486,-105.254,167.125,240.698,-181.343,205.83,198.397,36.8877,178.753,191.383
271,0,-9.61801,402.854,1132.38,4.79026,128.858,1133.69,-213.16,301.23,1188.15,-203.058,197.012,1189.75,-10.7869,479.62,852.365,28.7493,471.599,660.084,-94.5424,460.312,508.487,-273.67,400.237,381.565,-341.107,341.94,409.597,-257.163,388.823,226.077,-20.7955,73.5967,846.394,-9.8339,116.287,655.988,-61.846,119.593,449.14,-114.129,166.893,240.662,-190.428,205.742,198.601,27.7249,178.622,191.088
272,0,-10.8188,402.075,1132.84,2.84795,127.708,1133.14,-214.506,300.587,1188.94,-204.569,196.416,1190.46,-9.18118,479.237,853.94,36.2734,471.114,663.432,-84.9431,459.86,510.841,-263.242,399.758,382.238,-332.29,341.453,407.301,-239.726,389.689,228.644,-25.4142,73.5135,845.962,-16.4121,115.887,655.369,-69.5979,119.352,448.923,-123.076,166.742,240.704,-199.547,205.707,198.874,18.5346,178.519,190.798
273,0,-12.1142,401.397,1133.56,0.879386,126.706,1132.73,-215.888,299.964,1189.98,-206.079,195.84,1191.35,-8.00998,478.761,855.681,43.3196,470.385,667.131,-75.444,459.224,512.993,-252.197,399.314,381.705,-322.971,341.192,403.27,-220.66,390.502,230.425,-30.2163,73.5978,845.581,-23.3109,115.633,654.892,-77.6341,119.184,448.839,-132.104,166.667,240.835,-208.708,205.715,199.232,9.30558,178.438,190.521
274,0,-13.4907,400.815,1134.5,-1.09281,125.855,1132.46,-217.29,299.362,1191.24,-207.57,195.283,1192.43,-7.18959,478.197,857.565,49.852,469.427,671.105,-66.0706,458.429,514.881,-240.536,398.923,379.94,-313.016,341.126,397.567,-200.287,391.261,231.412,-35.2236,73.8089,845.248,-30.4998,115.51,654.563,-85.9292,119.078,448.892,-141.214,166.657,241.066,-217.915,205.755,199.692,0.0289087,178.372,190.262
275,0,-14.9331,400.322,1135.66,-3.04743,125.157,1132.33,-218.695,298.785,1192.71,-209.024,194.746,1193.67,-6.63356,477.554,859.57,55.8336,468.255,675.263,-56.8426,457.503,516.45,-228.26,398.598,376.956,-302.307,341.215,390.288,-178.911,391.991,231.647,-40.4286,74.1127,844.969,-37.9387,115.498,654.387,-94.4485,119.022,449.089,-150.4,166.698,241.409,-227.167,205.813,200.276,-9.30229,178.313,190.023
276,0,-16.4245,399.912,1137,-4.96506,124.61,1132.33,-220.087,298.24,1194.36,-210.427,194.232,1195.05,-6.26038,476.844,861.673,61.2253,466.89,679.507,-47.7757,456.481,517.655,-215.374,398.347,372.797,-290.756,341.414,381.556,-156.804,392.729,231.209,-45.796,74.4825,844.763,-45.5803,115.573,654.368,-103.15,119.001,449.435,-159.654,166.773,241.876,-236.458,205.876,201.006,-18.6929,178.252,189.803
277,0,-17.9461,399.58,1138.5,-6.82825,124.21,1132.45,-221.449,297.736,1196.15,-211.765,193.749,1196.55,-6.00009,476.085,863.852,65.9847,465.351,683.732,-38.8831,455.394,518.458,-201.881,398.176,367.546,-278.3,341.681,371.521,-134.191,393.52,230.205,-51.2685,74.8974,844.652,-53.371,115.712,654.509,-111.987,119,449.934,-168.96,166.862,242.48,-245.782,205.928,201.904,-28.146,178.183,189.6
278,0,-19.4776,399.32,1140.12,-8.62167,123.95,1132.69,-222.764,297.281,1198.06,-213.028,193.305,1198.16,-5.79913,475.296,866.083,70.0673,463.665,687.833,-30.1769,454.277,518.836,-187.783,398.084,361.314,-264.906,341.982,360.354,-111.25,394.401,228.762,-56.7767,75.3415,844.658,-61.2533,115.889,654.811,-120.91,119.003,450.589,-178.301,166.946,243.23,-255.129,205.955,202.993,-37.6628,178.099,189.408
279,0,-20.9972,399.128,1141.83,-10.3321,123.823,1133.02,-224.016,296.889,1200.04,-214.206,192.911,1199.85,-5.62293,474.503,868.342,73.4272,461.857,691.703,-21.6696,453.157,518.776,-173.08,398.067,354.242,-250.56,342.296,348.247,-88.1136,395.392,227.012,-62.2486,75.8019,844.804,-69.1673,116.079,655.27,-129.868,118.995,451.4,-187.657,167.006,244.133,-264.489,205.943,204.289,-47.243,177.992,189.222
280,0,-22.482,398.999,1143.59,-11.9484,123.818,1133.45,-225.192,296.571,1202.07,-215.294,192.578,1201.59,-5.45624,473.732,870.602,76.0207,459.958,695.243,-13.3756,452.059,518.284,-157.775,398.118,346.494,-235.267,342.617,335.412,-64.871,396.485,225.094,-67.619,76.2678,845.104,-77.0525,116.26,655.88,-138.81,118.965,452.362,-197.008,167.026,245.193,-273.849,205.879,205.809,-56.8847,177.859,189.036
281,0,-23.9083,398.929,1145.36,-13.4613,123.924,1133.94,-226.277,296.34,1204.1,-216.286,192.32,1203.36,-5.30141,473.011,872.833,77.8089,457.999,698.365,-5.31287,451.001,517.377,-141.875,398.224,338.252,-219.048,342.952,322.076,-41.5808,397.639,223.141,-72.8358,76.7291,845.564,-84.849,116.414,656.629,-147.687,118.903,453.469,-206.334,166.992,246.413,-283.2,205.754,207.563,-66.585,177.697,188.847
282,0,-25.2518,398.914,1147.11,-14.8631,124.126,1134.5,-227.259,296.209,1206.1,-217.179,192.151,1205.13,-5.17512,472.369,875.001,78.762,456.015,700.994,2.49608,449.995,516.09,-125.398,398.373,329.713,-201.938,343.316,308.482,-18.2813,398.783,221.286,-77.8628,77.1763,846.181,-92.4987,116.527,657.503,-156.451,118.804,454.712,-215.617,166.894,247.79,-292.529,205.56,209.556,-76.3404,177.504,188.65
283,0,-26.4888,398.949,1148.81,-16.1478,124.413,1135.1,-228.127,296.191,1208.04,-217.972,192.085,1206.87,-5.10421,471.832,877.068,78.8637,454.038,703.073,10.0227,449.046,514.471,-108.383,398.545,321.08,-183.992,343.73,294.883,4.99552,399.817,219.655,-82.6787,77.6004,846.942,-99.9464,116.59,658.483,-165.06,118.666,456.076,-224.841,166.726,249.321,-301.827,205.291,211.789,-86.1468,177.282,188.446
284,0,-27.5962,399.03,1150.42,-17.3103,124.77,1135.73,-228.872,296.295,1209.88,-218.665,192.133,1208.55,-5.12138,471.426,878.994,78.1149,452.103,704.565,17.2319,448.154,512.581,-90.8941,398.719,312.555,-165.289,344.209,281.534,28.21,400.629,218.372,-87.2733,77.9938,847.826,-107.141,116.602,659.547,-173.474,118.488,457.548,-233.994,166.485,250.999,-311.087,204.946,214.259,-96.0004,177.032,188.235
285,0,-28.5523,399.154,1151.91,-18.3467,125.184,1136.37,-229.486,296.532,1211.6,-219.257,192.306,1210.15,-5.26135,471.168,880.732,76.5374,450.241,705.456,24.0822,447.315,510.486,-73.0296,398.869,304.331,-145.945,344.758,268.682,51.3004,401.104,217.547,-91.6422,78.351,848.803,-114.033,116.564,660.67,-181.657,118.278,459.109,-243.068,166.172,252.815,-320.303,204.525,216.955,-105.897,176.76,188.022
286,0,-29.3381,399.315,1153.26,-19.2539,125.643,1137.01,-229.963,296.907,1213.17,-219.75,192.614,1211.63,-5.55773,471.073,882.234,74.1764,448.479,705.754,30.5266,446.52,508.259,-54.9303,398.966,296.583,-126.114,345.363,256.558,74.1699,401.141,217.28,-95.7802,78.6694,849.84,-120.582,116.485,661.825,-189.58,118.04,460.738,-252.058,165.791,254.758,-329.473,204.031,219.864,-115.835,176.468,187.811
287,0,-29.9371,399.51,1154.44,-20.0294,126.136,1137.63,-230.3,297.425,1214.55,-220.145,193.063,1212.97,-6.04094,471.144,883.453,71.1021,446.84,705.488,36.5145,445.759,505.97,-36.7812,398.982,289.458,-106.006,345.993,245.366,96.6765,400.668,217.642,-99.6766,78.9505,850.9,-126.746,116.377,662.982,-197.217,117.784,462.415,-260.962,165.349,256.816,-338.596,203.468,222.97,-125.809,176.162,187.609
288,0,-30.3363,399.735,1155.45,-20.6715,126.652,1138.22,-230.495,298.086,1215.74,-220.443,193.653,1214.14,-6.73665,471.378,884.343,67.4089,445.341,704.706,41.9936,445.019,503.682,-18.8124,398.885,283.067,-85.8806,346.599,235.265,118.627,399.65,218.669,-103.312,79.2005,851.947,-132.493,116.254,664.111,-204.549,117.519,464.117,-269.784,164.852,258.975,-347.676,202.84,226.254,-135.818,175.847,187.42
289,0,-30.5271,399.987,1156.26,-21.1788,127.185,1138.75,-230.548,298.889,1216.72,-220.646,194.386,1215.12,-7.66419,471.762,884.863,63.2143,443.991,703.473,46.913,444.289,501.445,-1.29408,398.649,277.479,-66.0561,347.116,226.366,139.775,398.098,220.348,-106.655,79.4308,852.94,-137.789,116.135,665.18,-211.558,117.255,465.821,-278.527,164.309,261.222,-356.717,202.152,229.695,-145.86,175.526,187.25
290,0,-30.505,400.265,1156.88,-21.5509,127.73,1139.22,-230.462,299.827,1217.47,-220.755,195.255,1215.88,-8.83463,472.269,884.982,58.6548,442.792,701.866,51.2262,443.555,499.296,15.4718,398.251,272.715,-46.897,347.478,218.723,159.83,396.068,222.604,-109.666,79.6577,853.846,-142.606,116.036,666.158,-218.23,116.999,467.503,-287.194,163.726,263.542,-365.721,201.407,233.277,-155.931,175.204,187.1
291,0,-30.2701,400.568,1157.29,-21.788,128.282,1139.61,-230.242,300.891,1217.99,-220.771,196.254,1216.43,-10.2477,472.864,884.683,53.8811,441.739,699.969,54.8936,442.808,497.253,31.1655,397.674,268.752,-28.8031,347.619,212.33,178.462,393.654,225.298,-112.3,79.9019,854.628,-146.915,115.975,667.012,-224.552,116.76,469.142,-295.788,163.108,265.923,-374.691,200.605,236.982,-166.029,174.884,186.967
292,0,-29.8274,400.895,1157.5,-21.8912,128.842,1139.9,-229.894,302.07,1218.27,-220.696,197.369,1216.73,-11.8882,473.502,883.964,49.052,440.822,697.87,57.8849,442.037,495.316,45.4662,396.911,265.522,-12.1896,347.49,207.124,195.33,390.978,228.223,-114.507,80.1878,855.256,-150.688,115.967,667.71,-230.511,116.543,470.714,-304.307,162.46,268.354,-383.625,199.747,240.798,-176.154,174.567,186.846
293,0,-29.1862,401.25,1157.51,-21.8628,129.412,1140.09,-229.427,303.346,1218.32,-220.532,198.587,1216.78,-13.7212,474.13,882.844,44.3264,440.023,695.652,60.1818,441.235,493.47,58.0711,395.964,262.923,2.53722,347.062,202.998,210.098,388.178,231.122,-116.24,80.5411,855.701,-153.894,116.024,668.22,-236.089,116.351,472.198,-312.741,161.783,270.829,-392.512,198.829,244.72,-186.302,174.254,186.727
294,0,-28.3605,401.635,1157.32,-21.7063,129.995,1140.16,-228.852,304.704,1218.13,-220.28,199.89,1216.59,-15.6894,474.691,881.364,39.8564,439.324,693.396,61.7795,440.397,491.69,68.7152,394.843,260.828,15.0079,346.33,199.806,222.465,385.388,233.705,-117.459,80.9875,855.937,-156.5,116.157,668.513,-241.264,116.186,473.576,-321.072,161.079,273.342,-401.334,197.848,248.751,-196.473,173.948,186.596
295,0,-27.3676,402.056,1156.95,-21.4266,130.596,1140.1,-228.18,306.124,1217.72,-219.943,201.258,1216.15,-17.7102,475.128,879.584,35.7792,438.703,691.172,62.6879,439.524,489.942,77.189,393.568,259.101,24.9178,345.319,197.388,232.193,382.731,235.679,-118.132,81.5498,855.939,-158.468,116.368,668.56,-246.008,116.048,474.832,-329.273,160.347,275.898,-410.057,196.803,252.901,-206.668,173.65,186.439
296,0,-26.2287,402.519,1156.42,-21.0303,131.221,1139.9,-227.426,307.584,1217.1,-219.525,202.67,1215.46,-19.6785,475.391,877.585,32.2101,438.142,689.037,62.933,438.616,488.193,83.3545,392.165,257.607,32.0521,344.075,195.578,239.131,380.301,236.787,-118.237,82.2461,855.689,-159.757,116.661,668.335,-250.284,115.936,475.952,-337.303,159.585,278.503,-418.634,195.692,257.194,-216.888,173.361,186.24
297,0,-24.9674,403.031,1155.72,-20.5255,131.88,1139.56,-226.603,309.064,1216.28,-219.031,204.106,1214.54,-21.471,475.443,875.465,29.2372,437.625,687.036,62.5564,437.682,486.412,87.1541,390.669,256.226,36.3065,342.663,194.226,243.232,378.161,236.834,-117.763,83.0874,855.17,-160.324,117.03,667.816,-254.05,115.848,476.928,-345.107,158.796,281.172,-427,194.517,261.663,-227.133,173.087,185.986
298,0,-23.6092,403.598,1154.89,-19.9221,132.578,1139.08,-225.728,310.542,1215.27,-218.466,205.544,1213.4,-22.9566,475.266,873.328,26.9169,437.142,685.198,61.6153,436.733,484.58,88.6157,389.114,254.865,37.6971,341.157,193.205,244.567,376.34,235.722,-116.707,84.0759,854.37,-160.121,117.468,666.986,-257.253,115.78,477.758,-352.618,157.979,283.927,-435.071,193.287,266.351,-237.406,172.831,185.672
299,0,-22.1808,404.23,1153.95,-19.2317,133.322,1138.46,-224.817,311.999,1214.11,-217.838,206.963,1212.06,-24.0097,474.863,871.282,25.2717,436.69,683.54,60.1798,435.784,482.689,87.8494,387.538,253.462,36.3621,339.635,192.416,243.319,374.835,233.463,-115.073,85.2042,853.284,-159.105,117.964,665.835,-259.836,115.729,478.444,-359.76,157.141,286.797,-442.75,192.015,271.311,-247.703,172.602,185.299
300,0,-20.7096,404.933,1152.9,-18.4672,134.12,1137.69,-223.886,313.415,1212.81,-217.155,208.346,1210.53,-24.5257,474.265,869.424,24.2896,436.272,682.064,58.3296,434.856,480.742,85.0392,385.98,251.99,32.5502,338.168,191.796,239.771,373.619,230.181,-112.871,86.4552,851.915,-157.232,118.501,664.361,-261.741,115.692,478.997,-366.443,156.288,289.814,-449.922,190.724,276.601,-258.018,172.408,184.881
301,0,-19.2224,405.712,1151.76,-17.6432,134.975,1136.79,-222.95,314.775,1211.39,-216.427,209.677,1208.85,-24.4368,473.525,867.833,23.9268,435.898,680.762,56.1493,433.97,478.758,80.4277,384.476,250.452,26.5992,336.815,191.306,234.282,372.648,226.094,-110.112,87.8026,850.275,-154.469,119.062,662.574,-262.908,115.664,479.436,-372.575,155.432,293.019,-456.464,189.441,282.283,-268.334,172.261,184.447
302,0,-17.7451,406.573,1150.57,-16.7752,135.89,1135.76,-222.027,316.064,1209.88,-215.665,210.941,1207.04,-23.7252,472.718,866.563,24.1098,435.583,679.614,53.7222,433.152,476.761,74.2978,383.059,248.877,18.9064,335.622,190.929,227.255,371.873,221.491,-106.808,89.2124,848.387,-150.794,119.626,660.493,-263.281,115.641,479.785,-378.06,154.587,296.451,-462.248,188.204,288.413,-278.623,172.17,184.041
303,0,-16.3022,407.518,1149.33,-15.8799,136.865,1134.62,-221.13,317.271,1208.3,-214.883,212.13,1205.11,-22.4313,471.933,865.632,24.7415,435.349,678.594,51.1236,432.425,474.783,66.9517,381.758,247.309,9.89393,334.614,190.66,219.102,371.244,216.687,-102.973,90.6454,846.287,-146.2,120.172,658.149,-262.813,115.617,480.077,-382.805,153.772,300.151,-467.146,187.054,295.043,-288.837,172.144,183.723
