Trajectories
100
,,Subj:LASI,,,Subj:RASI,,,Subj:LPSI,,,Subj:RPSI,,,Subj:LTHI,,,Subj:LKNE,,,Subj:LTIB,,,Subj:LANK,,,Subj:LHEE,,,Subj:LTOE,,,Subj:RTHI,,,Subj:RKNE,,,Subj:RTIB,,,Subj:RANK,,,Subj:RHEE,,,Subj:RTOE,,,
Frame,Sub Frame,X,Y,Z,X,Y,Z,X,Y,Z,X,Y,Z,X,Y,Z,X,Y,Z,X,Y,Z,X,Y,Z,X,Y,Z,X,Y,Z,X,Y,Z,X,Y,Z,X,Y,Z,X,Y,Z,X,Y,Z,X,Y,Z
,,mm,mm,mm,mm,mm,mm,mm,mm,mm,mm,mm,mm,mm,mm,mm,mm,mm,mm,mm,mm,mm,mm,mm,mm,mm,mm,mm,mm,mm,mm,mm,mm,mm,mm,mm,mm,mm,mm,mm,mm,mm,mm,mm,mm,mm,mm,mm,mm
1,0,72.9066,435.876,1129.53,123.177,168.731,1130.89,-113.753,312.831,1198.86,-89.1749,208.521,1195.98,4.65418,499.924,848.014,-6.75593,486.795,650.057,-131.739,464.136,488.047,-284.982,392.45,337.159,-356.956,341.014,357.652,-243.27,365.656,188.807,134.303,119.645,857.919,150.312,161.263,670.09,116.934,162.29,461.104,73.2989,205.391,247.877,-3.84349,237.581,200.848,215.854,230.489,195.182
2,0,73.105,435.033,1127.6,122.572,167.411,1130.41,-113.856,312.195,1197.22,-89.7645,207.923,1195.4,10.2108,501.026,846.884,0.841159,489.009,648.567,-125.129,466.678,489.334,-282.712,393.752,342.59,-351.468,341.251,367.853,-250.642,365.613,191.91,129.868,116.427,855.217,147.12,159.216,667.903,110.287,160.681,459.231,64.5051,204.822,247.246,-12.9809,237.198,200.797,206.631,230.057,194.766
3,0,73.2328,434.205,1125.96,121.855,166.121,1130.02,-114.05,311.63,1195.82,-90.445,207.387,1194.93,15.3372,501.89,845.944,8.47151,490.922,647.455,-118.3,468.946,490.666,-280.367,395.268,348.468,-345.978,341.482,377.141,-255.857,366.162,195.278,125.399,113.475,852.854,143.45,157.278,665.913,103.464,159.196,457.556,55.7278,204.271,246.681,-22.0744,236.846,200.782,197.452,229.625,194.379
4,0,73.2897,433.393,1124.61,121.025,164.861,1129.73,-114.336,311.135,1194.66,-91.2163,206.916,1194.59,20.0345,502.518,845.194,16.1341,492.536,646.72,-111.254,470.939,492.044,-277.708,396.921,354.577,-340.488,341.709,385.511,-258.917,367.296,198.901,120.893,110.789,850.83,139.303,155.45,664.121,96.4681,157.834,456.077,46.9665,203.738,246.183,-31.1246,236.525,200.805,188.315,229.192,194.021
5,0,73.2757,432.598,1123.55,120.084,163.632,1129.54,-114.714,310.71,1193.72,-92.078,206.508,1194.37,24.3054,502.912,844.637,23.8257,493.851,646.364,-103.994,472.659,493.465,-274.4,398.569,360.581,-334.997,341.944,392.952,-259.824,368.992,202.755,116.35,108.373,849.14,134.687,153.734,662.527,89.301,156.598,454.795,38.2198,203.224,245.752,-40.1334,236.236,200.867,179.218,228.761,193.692
6,0,73.1905,431.818,1122.78,119.031,162.435,1129.45,-115.183,310.355,1193.02,-93.0294,206.163,1194.28,28.1564,503.078,844.272,31.54,494.87,646.383,-96.5252,474.107,494.927,-270.257,400.054,366.22,-329.507,342.205,399.441,-258.588,371.21,206.795,111.767,106.228,847.777,129.614,152.134,661.13,81.9694,155.489,453.709,29.4854,202.732,245.391,-49.1043,235.977,200.972,170.158,228.334,193.393
7,0,73.0339,431.055,1122.3,117.867,161.27,1129.46,-115.742,310.07,1192.55,-94.0694,205.881,1194.31,31.5995,503.025,844.104,39.2654,495.599,646.776,-88.8603,475.289,496.425,-265.34,401.278,371.414,-324.015,342.524,404.945,-255.235,373.883,210.948,107.139,104.358,846.727,124.103,150.655,659.929,74.4831,154.51,452.815,20.7592,202.266,245.103,-58.0426,235.752,201.126,161.128,227.916,193.123
8,0,72.8055,430.31,1122.1,116.595,160.139,1129.56,-116.391,309.853,1192.31,-95.1959,205.663,1194.47,34.6541,502.769,844.135,46.9845,496.046,647.538,-81.0155,476.211,497.951,-259.793,402.245,376.164,-318.512,342.939,409.421,-249.81,376.918,215.118,102.464,102.769,845.969,118.187,149.306,658.923,66.8555,153.665,452.112,12.0358,201.831,244.893,-66.9558,235.559,201.338,152.118,227.512,192.881
9,0,72.5051,429.583,1122.19,115.216,159.045,1129.75,-117.127,309.704,1192.29,-96.4063,205.506,1194.74,37.3486,502.33,844.369,54.6728,496.219,648.66,-73.0137,476.884,499.496,-253.671,403.058,380.409,-312.977,343.498,412.819,-242.389,380.201,219.188,97.7391,101.464,845.478,111.903,148.097,658.109,59.103,152.957,451.597,3.30852,201.434,244.766,-75.8531,235.402,201.621,143.119,227.129,192.666
10,0,72.1327,428.875,1122.54,113.733,157.99,1130.03,-117.949,309.623,1192.5,-97.6968,205.412,1195.14,39.7215,501.733,844.811,62.298,496.132,650.13,-64.884,477.323,501.043,-246.928,403.867,383.997,-307.38,344.246,415.087,-233.082,383.604,223.033,92.9675,100.442,845.219,105.299,147.038,657.482,51.2445,152.388,451.264,-5.42988,201.082,244.733,-84.7445,235.281,201.99,134.118,226.776,192.477
11,0,71.6887,428.19,1123.16,112.152,156.979,1130.4,-118.852,309.607,1192.92,-99.0626,205.378,1195.66,41.8211,501.009,845.466,69.8203,495.799,651.932,-56.6608,477.549,502.574,-239.54,404.803,386.763,-301.673,345.225,416.172,-222.032,386.995,226.523,88.1551,99.7002,845.155,98.4312,146.139,657.037,43.2999,151.959,451.109,-14.1869,200.783,244.803,-93.6404,235.198,202.461,125.101,226.461,192.308
12,0,71.1743,427.529,1124.04,110.476,156.017,1130.84,-119.832,309.655,1193.54,-100.498,205.404,1196.29,43.7047,500.192,846.339,77.1926,495.24,654.043,-48.3828,477.583,504.067,-231.585,405.925,388.604,-295.799,346.461,416.03,-209.413,390.253,229.544,83.3129,99.2299,845.251,91.3583,145.406,656.766,35.2894,151.666,451.126,-22.9695,200.543,244.987,-102.55,235.156,203.055,116.055,226.19,192.158
13,0,70.5917,426.893,1125.16,108.713,155.107,1131.35,-120.883,309.766,1194.37,-101.996,205.49,1197.03,45.4364,499.321,847.433,84.3612,494.471,656.434,-40.0915,477.452,505.494,-223.189,407.218,389.48,-289.686,347.964,414.624,-195.421,393.278,232.003,78.4564,99.0154,845.469,84.1421,144.844,656.66,27.2324,151.504,451.31,-31.783,200.368,245.296,-111.483,235.156,203.791,106.968,225.97,192.019
14,0,69.944,426.288,1126.5,106.87,154.256,1131.94,-122,309.937,1195.38,-103.548,205.635,1197.88,47.0836,498.432,848.752,91.2674,493.515,659.071,-31.8294,477.186,506.825,-214.423,408.629,389.365,-283.253,349.719,411.93,-180.261,396.005,233.835,73.6033,99.0348,845.778,76.8436,144.454,656.71,19.1467,151.465,451.654,-40.6312,200.262,245.741,-120.443,235.197,204.688,97.8293,225.804,191.887
15,0,69.236,425.714,1128.06,104.955,153.468,1132.58,-123.173,310.169,1196.56,-105.145,205.836,1198.84,48.7132,497.563,850.297,97.8488,492.393,661.913,-23.6376,476.814,508.026,-205.267,410.109,388.222,-276.415,351.692,407.937,-164.138,398.406,235.011,68.772,99.2597,846.154,69.5203,144.231,656.904,11.0485,151.536,452.151,-49.515,200.224,246.331,-129.434,235.281,205.762,88.6309,225.693,191.755
16,0,68.4739,425.176,1129.81,102.979,152.749,1133.27,-124.395,310.457,1197.91,-106.778,206.094,1199.9,50.3866,496.743,852.066,104.041,491.126,664.915,-15.5543,476.363,509.062,-195.673,411.622,386.03,-269.085,353.824,402.652,-147.239,400.496,235.539,63.9788,99.6572,846.579,62.2244,144.166,657.231,2.95206,151.702,452.793,-58.4331,200.254,247.072,-138.456,235.404,207.028,79.367,225.635,191.618
17,0,67.6655,424.677,1131.73,100.951,152.105,1134,-125.653,310.803,1199.39,-108.435,206.408,1201.04,52.1561,496,854.056,109.781,489.737,668.027,-7.61254,475.861,509.899,-185.623,413.15,382.816,-261.177,356.045,396.096,-129.729,402.328,235.459,59.2358,100.191,847.041,55.0005,144.245,657.677,-5.12966,151.947,453.571,-67.3813,200.346,247.968,-147.506,235.565,208.496,70.0343,225.624,191.471
18,0,66.8204,424.221,1133.8,98.8853,151.538,1134.76,-126.938,311.203,1201.01,-110.104,206.778,1202.27,54.0602,495.352,856.259,115.007,488.246,671.197,0.160508,475.331,510.507,-175.115,414.677,378.628,-252.611,358.274,388.309,-111.739,403.981,234.843,54.5494,100.825,847.535,47.8841,144.451,658.229,-13.185,152.254,454.475,-76.3528,200.492,249.019,-156.579,235.758,210.169,60.632,225.651,191.31
19,0,65.9499,423.81,1135.99,96.7933,151.054,1135.55,-128.236,311.658,1202.73,-111.774,207.201,1203.57,56.1211,494.807,858.664,119.661,486.676,674.372,7.74484,474.791,510.858,-164.124,416.182,373.509,-243.31,360.435,379.354,-93.3655,405.551,233.783,49.9204,101.522,848.062,40.9017,144.763,658.873,-21.203,152.607,455.495,-85.3393,200.685,250.22,-165.667,235.977,212.049,51.161,225.707,191.132
20,0,65.0668,423.448,1138.28,94.6894,150.654,1136.36,-129.535,312.166,1204.53,-113.432,207.679,1204.94,58.343,494.365,861.253,123.693,485.046,677.497,15.1278,474.255,510.934,-152.642,417.624,367.536,-233.202,362.459,369.31,-74.6684,407.134,232.388,45.3444,102.252,848.62,34.07,145.161,659.596,-29.1734,152.989,456.618,-94.3311,200.911,251.565,-174.764,236.216,214.131,41.6238,225.779,190.936
21,0,64.1852,423.139,1140.63,92.5882,150.34,1137.18,-130.819,312.728,1206.4,-115.065,208.211,1206.35,60.7113,494.018,864.003,127.059,483.377,680.523,22.3036,473.732,510.728,-140.739,418.941,360.865,-222.224,364.294,358.287,-55.6777,408.807,230.776,40.8138,102.99,849.213,27.3968,145.622,660.383,-37.0861,153.387,457.833,-103.318,201.161,253.043,-183.859,236.465,216.404,32.0234,225.855,190.722
22,0,63.3205,422.884,1143.03,90.5053,150.112,1137.99,-132.076,313.343,1208.31,-116.659,208.797,1207.81,63.194,493.751,866.883,129.728,481.685,683.401,29.2729,473.227,510.24,-128.533,420.071,353.706,-210.316,365.909,346.415,-36.3982,410.617,229.064,36.321,103.718,849.841,20.8821,146.126,661.22,-44.9318,153.79,459.126,-112.29,201.422,254.642,-192.945,236.718,218.857,22.363,225.924,190.493
23,0,62.4885,422.687,1145.44,88.4563,149.971,1138.79,-133.29,314.012,1210.24,-118.202,209.437,1209.28,65.7429,493.544,869.858,131.678,479.99,686.089,36.0412,472.738,509.486,-116.083,420.976,346.22,-197.43,367.295,333.858,-16.8191,412.57,227.367,31.8604,104.425,850.501,14.52,146.655,662.095,-52.7016,154.189,460.484,-121.239,201.683,256.346,-202.013,236.965,221.473,12.6454,225.973,190.25
24,0,61.7056,422.549,1147.83,86.4576,149.914,1139.58,-134.447,314.735,1212.16,-119.681,210.133,1210.76,68.2969,493.376,872.881,132.901,478.307,688.549,42.6172,472.264,508.493,-103.298,421.666,338.449,-183.53,368.462,320.803,3.07672,414.625,225.792,27.4319,105.11,851.189,8.30039,147.196,662.995,-60.3871,154.578,461.893,-130.158,201.933,258.143,-211.059,237.198,224.236,2.87265,225.996,189.999
25,0,60.9883,422.471,1150.17,84.5253,149.939,1140.35,-135.534,315.513,1214.04,-121.084,210.883,1212.22,70.7845,493.229,875.903,133.405,476.652,690.752,49.0112,471.798,507.297,-89.9692,422.192,330.358,-168.595,369.433,307.466,23.3011,416.697,224.435,23.0421,105.777,851.896,2.21178,147.738,663.909,-67.9811,154.954,463.341,-139.041,202.165,260.017,-220.076,237.409,227.129,-6.95369,225.986,189.744
26,0,60.3522,422.456,1152.43,82.6755,150.042,1141.08,-136.535,316.347,1215.87,-122.399,211.69,1213.65,73.1273,493.087,878.864,133.209,475.039,692.674,55.2324,471.332,505.944,-75.8975,422.623,321.949,-152.635,370.239,294.083,43.8502,418.664,223.378,18.7059,106.437,852.612,-3.75623,148.274,664.828,-75.4764,155.316,464.816,-147.885,202.369,261.956,-229.062,237.589,230.135,-16.8328,225.94,189.489
27,0,59.8123,422.505,1154.59,80.9239,150.22,1141.77,-137.44,317.238,1217.62,-123.615,212.553,1215.03,75.2435,492.945,881.701,132.352,473.479,694.301,61.2874,470.855,504.483,-60.9936,423.024,313.34,-135.69,370.907,280.905,64.6935,420.382,222.688,14.4456,107.103,853.326,-9.6103,148.801,665.745,-82.8663,155.661,466.305,-156.689,202.54,263.949,-238.013,237.732,233.241,-26.764,225.858,189.24
28,0,59.3824,422.618,1156.62,79.2854,150.47,1142.41,-138.237,318.186,1219.25,-124.723,213.472,1216.33,77.0507,492.804,884.345,130.887,471.984,695.624,67.1776,470.358,502.966,-45.299,423.434,304.765,-117.848,371.454,268.184,85.7646,421.7,222.414,10.2904,107.791,854.025,-15.3508,149.32,666.65,-90.1433,155.991,467.798,-165.453,202.671,265.989,-246.928,237.828,236.434,-36.7462,225.742,189.002
29,0,59.0743,422.795,1158.49,77.774,150.787,1143,-138.916,319.193,1220.76,-125.713,214.449,1217.54,78.4698,492.677,886.727,128.882,470.563,696.64,72.8975,469.83,501.44,-28.9432,423.847,296.502,-99.2482,371.886,256.161,106.953,422.483,222.587,6.27435,108.515,854.695,-20.9699,149.835,667.537,-97.2985,156.307,469.284,-174.177,202.758,268.07,-255.806,237.87,239.707,-46.7773,225.596,188.782
30,0,58.898,423.038,1160.18,76.4023,151.168,1143.53,-139.47,320.258,1222.11,-126.579,215.482,1218.63,79.4281,492.583,888.777,126.419,469.222,697.355,78.4331,469.259,499.945,-12.0939,424.204,288.808,-80.0869,372.189,245.052,128.101,422.625,223.212,2.43422,109.288,855.325,-26.4496,150.351,668.396,-104.32,156.608,470.753,-182.862,202.796,270.189,-264.646,237.848,243.052,-56.854,225.423,188.583
31,0,58.8613,423.346,1161.67,75.1811,151.611,1143.99,-139.891,321.381,1223.28,-127.314,216.571,1219.58,79.8633,492.545,890.433,123.593,467.967,697.778,83.7609,468.636,498.512,5.07047,424.396,281.876,-60.6231,372.337,235.034,148.997,422.065,224.271,-1.19257,110.12,855.903,-31.7609,150.873,669.218,-111.195,156.896,472.192,-191.507,202.782,272.346,-273.449,237.753,246.469,-66.9711,225.229,188.411
32,0,58.9693,423.719,1162.94,74.1196,152.112,1144.36,-140.178,322.562,1224.26,-127.915,217.715,1220.37,79.7285,492.588,891.637,120.507,466.8,697.922,88.8474,467.954,497.158,22.3569,424.29,275.844,-41.1735,372.293,226.231,169.384,420.798,225.709,-4.56964,111.015,856.419,-36.864,151.409,669.988,-117.902,157.169,473.591,-200.109,202.71,274.54,-282.211,237.575,249.954,-77.122,225.018,188.266
33,0,59.2248,424.158,1163.97,73.2243,152.67,1144.66,-140.327,323.798,1225.02,-128.379,218.911,1220.98,78.9968,492.733,892.346,117.273,465.723,697.805,93.6497,467.204,495.885,39.5334,423.771,270.818,-22.106,372.02,218.709,188.961,418.874,227.443,-7.66274,111.975,856.861,-41.7084,151.963,670.69,-124.418,157.427,474.938,-208.661,202.579,276.775,-290.93,237.304,253.51,-87.2985,224.793,188.15
34,0,59.6275,424.663,1164.75,72.4993,153.285,1144.85,-140.34,325.088,1225.55,-128.706,220.158,1221.4,77.6674,492.991,892.534,114.002,464.734,697.445,98.1169,466.384,494.682,56.2946,422.78,266.873,-3.8257,371.483,212.47,207.4,416.392,229.351,-10.4402,112.997,857.218,-46.2347,152.538,671.302,-130.713,157.668,476.218,-217.153,202.384,279.053,-299.598,236.933,257.14,-97.4923,224.558,188.059
35,0,60.1747,425.233,1165.27,71.9461,153.956,1144.95,-140.22,326.428,1225.83,-128.899,221.451,1221.61,75.7704,493.364,892.192,110.805,463.832,696.863,102.192,465.495,493.525,72.2386,421.34,264.025,13.2429,370.663,207.457,224.357,413.493,231.282,-12.873,114.073,857.477,-50.3763,153.133,671.798,-136.753,157.888,477.418,-225.568,202.124,281.377,-308.206,236.455,260.848,-107.696,224.312,187.988
36,0,60.8607,425.867,1165.53,71.5631,154.684,1144.93,-139.974,327.813,1225.87,-128.96,222.787,1221.6,73.3714,493.837,891.334,107.787,463.016,696.08,105.818,464.542,492.38,86.8801,419.55,262.196,28.6787,369.558,203.561,239.497,410.343,233.06,-14.9337,115.194,857.621,-54.0624,153.744,672.148,-142.498,158.083,478.524,-233.884,201.797,283.749,-316.735,235.869,264.643,-117.902,224.058,187.927
37,0,61.6775,426.565,1165.53,71.3457,155.469,1144.79,-139.609,329.239,1225.65,-128.898,224.16,1221.35,70.573,494.383,889.996,105.041,462.283,695.116,108.935,463.533,491.208,99.7237,417.55,261.189,42.0895,368.19,200.637,252.513,407.114,234.494,-16.5964,116.346,857.632,-57.2201,154.364,672.319,-147.904,158.249,479.521,-242.072,201.401,286.172,-325.161,235.177,268.535,-128.11,223.796,187.864
38,0,62.6144,427.327,1165.26,71.2863,156.312,1144.52,-139.137,330.7,1225.17,-128.72,225.565,1220.87,67.5147,494.966,888.236,102.646,461.633,693.991,111.496,462.484,489.965,110.372,415.471,260.702,53.1378,366.6,198.517,263.149,403.968,235.4,-17.8356,117.514,857.486,-59.7779,154.978,672.276,-152.923,158.379,480.399,-250.093,200.938,288.649,-333.446,234.386,272.539,-138.32,223.527,187.783
39,0,63.6585,428.15,1164.74,71.3742,157.213,1144.11,-138.569,332.189,1224.43,-128.436,226.994,1220.14,64.3667,495.542,886.129,100.663,461.065,692.724,113.458,461.414,488.614,118.598,413.397,260.375,61.565,364.851,197.028,271.224,401.044,235.614,-18.6266,118.681,857.159,-61.6683,155.57,671.984,-157.503,158.464,481.149,-257.901,200.408,291.183,-341.54,233.51,276.677,-148.539,223.251,187.668
40,0,64.7946,429.032,1163.98,71.596,158.173,1143.57,-137.92,333.697,1223.46,-128.061,228.441,1219.18,61.3212,496.07,883.769,99.1305,460.583,691.332,114.799,460.346,487.123,124.333,411.361,259.851,67.2119,363.018,196.01,276.645,398.444,235.017,-18.945,119.83,856.625,-62.83,156.119,671.411,-161.591,158.496,481.765,-265.439,199.814,293.779,-349.377,232.567,280.976,-158.777,222.973,187.505
41,0,66.0059,429.972,1163,71.9356,159.189,1142.87,-137.208,335.217,1222.24,-127.608,229.899,1217.98,58.578,496.518,881.256,98.065,460.19,689.832,115.509,459.305,485.471,127.554,409.389,258.839,70.0323,361.183,195.322,279.42,396.232,233.549,-18.768,120.941,855.859,-63.2105,156.603,670.528,-165.134,158.465,482.247,-272.644,199.159,296.444,-356.875,231.583,285.471,-169.049,222.694,187.281
42,0,67.2739,430.966,1161.8,72.3749,160.26,1142.03,-136.448,336.74,1220.82,-127.094,231.359,1216.55,56.3269,496.867,878.694,97.4594,459.893,688.239,115.6,458.317,483.653,128.16,407.53,257.169,70.0978,359.427,194.855,279.657,394.43,231.223,-18.0751,121.995,854.838,-62.7679,156.998,669.316,-168.079,158.36,482.603,-279.445,198.446,299.189,-363.937,230.584,290.203,-179.368,222.422,186.995
43,0,68.579,432.009,1160.42,72.8936,161.382,1141.03,-135.66,338.256,1219.19,-126.536,232.816,1214.9,54.7295,497.117,876.182,97.2839,459.7,686.568,115.099,457.407,481.675,125.951,405.851,254.838,67.5931,357.822,194.531,277.56,393.029,228.125,-16.8501,122.973,853.547,-61.4723,157.28,667.763,-170.375,158.171,482.847,-285.764,197.678,302.028,-370.45,229.599,295.216,-189.744,222.161,186.652
44,0,69.9003,433.098,1158.89,73.4702,162.55,1139.89,-134.862,339.758,1217.4,-125.954,234.26,1213.05,53.9002,497.289,873.808,97.4878,459.617,684.833,114.051,456.596,479.561,120.835,404.383,252.029,62.8007,356.423,194.299,273.409,391.989,224.411,-15.0823,123.858,851.981,-59.3073,157.429,665.87,-171.975,157.885,482.999,-291.522,196.858,304.981,-376.293,228.655,300.558,-200.179,221.918,186.273
45,0,71.2168,434.227,1157.22,74.0823,163.756,1138.61,-134.073,341.235,1215.46,-125.365,235.686,1211.03,53.8912,497.42,871.641,98.0017,459.651,683.047,112.507,455.904,477.343,113.172,403.084,249.09,56.0772,355.268,194.135,267.539,391.254,220.285,-12.7681,124.634,850.149,-56.2706,157.429,663.653,-172.835,157.493,483.089,-296.637,195.99,308.07,-381.343,227.778,306.275,-210.655,221.698,185.893
46,0,72.5068,435.389,1155.44,74.7071,164.993,1137.19,-133.312,342.681,1213.41,-124.789,237.087,1208.85,54.6834,497.562,869.725,98.7414,459.809,681.225,110.525,455.342,475.062,103.929,401.883,246.43,47.8229,354.37,194.029,260.311,390.761,215.982,-9.91303,125.289,848.071,-52.3745,157.269,661.139,-172.92,156.985,483.151,-301.034,195.076,311.322,-385.478,226.985,312.405,-221.133,221.504,185.562
47,0,73.749,436.578,1153.6,75.3221,166.25,1135.65,-132.596,344.086,1211.29,-124.246,238.458,1206.54,56.1845,497.768,868.082,99.6117,460.093,679.378,108.163,454.917,472.762,94.344,400.781,244.379,38.4492,353.725,193.981,252.082,390.443,211.736,-6.53294,125.815,845.786,-47.646,156.944,658.373,-172.201,156.353,483.223,-304.642,194.119,314.767,-388.592,226.289,318.977,-231.544,221.335,185.347
48,0,74.9225,437.787,1151.71,75.9054,167.517,1134.01,-131.942,345.446,1209.12,-123.753,239.794,1204.13,58.2348,498.092,866.703,100.51,460.502,677.521,105.468,454.627,470.487,85.2968,399.884,243.061,28.347,353.308,193.993,243.18,390.24,207.756,-2.65507,126.207,843.345,-42.1262,156.458,655.409,-170.66,155.592,483.348,-307.401,193.122,318.431,-390.601,225.692,326,-241.781,221.184,185.325
49,0,76.0073,439.006,1149.82,76.4365,168.781,1132.29,-131.365,346.753,1206.95,-123.328,241.092,1201.65,60.6216,498.575,865.558,101.333,461.032,675.665,102.477,454.468,468.275,76.9143,399.327,242.369,17.8606,353.082,194.064,233.885,390.101,204.206,1.68108,126.468,840.813,-35.869,155.821,652.317,-168.287,154.701,483.567,-309.263,192.09,322.34,-391.451,225.19,333.461,-251.699,221.035,185.582
50,0,76.9846,440.228,1147.94,76.8964,170.029,1130.5,-130.88,348.002,1204.8,-122.986,242.347,1199.15,63.0992,499.241,864.598,101.975,461.674,673.822,99.2119,454.428,466.159,68.7707,399.16,242.068,7.26973,353,194.191,224.416,389.985,201.195,6.42345,126.606,838.263,-28.9395,155.051,649.174,-165.086,153.681,483.919,-310.196,191.029,326.513,-391.124,224.772,341.324,-261.113,220.868,186.203
51,0,77.8368,441.444,1146.11,77.2682,171.25,1128.69,-130.497,349.191,1202.72,-122.74,243.558,1196.66,65.4127,500.096,863.761,102.34,462.415,672.006,95.679,454.492,464.159,60.4125,399.311,241.926,-3.2196,353.014,194.364,214.928,389.862,198.767,11.5079,126.631,835.773,-21.4117,154.174,646.064,-161.068,152.542,484.438,-310.18,189.946,330.956,-389.637,224.423,349.519,-269.802,220.65,187.265
52,0,78.5486,442.646,1144.36,77.5375,172.431,1126.87,-130.227,350.316,1200.74,-122.601,244.723,1194.2,67.3222,501.124,862.983,102.337,463.241,670.226,91.8701,454.643,462.29,51.695,399.616,241.786,-13.4748,353.076,194.569,205.517,389.715,196.913,16.8592,126.561,833.418,-13.3656,153.218,643.072,-156.259,151.296,485.15,-309.212,188.853,335.665,-387.049,224.124,357.952,-277.518,220.343,188.832
53,0,79.1062,443.825,1142.7,77.6926,173.561,1125.09,-130.076,351.375,1198.89,-122.578,245.839,1191.83,68.6242,502.295,862.205,101.886,464.132,668.496,87.7665,454.864,460.557,42.7449,399.9,241.567,-23.4293,353.148,194.795,196.23,389.534,195.576,22.3932,126.413,831.269,-4.88455,152.217,640.285,-150.692,149.961,486.072,-307.299,187.759,340.616,-383.449,223.856,366.497,-283.996,219.906,190.94
54,0,79.4985,444.974,1141.17,77.7245,174.63,1123.37,-130.052,352.367,1197.2,-122.677,246.904,1189.58,69.168,503.564,861.381,100.923,465.071,666.826,83.3431,455.135,458.96,33.7582,400.046,241.247,-33.0701,353.199,195.027,187.076,389.318,194.671,28.0198,126.209,829.385,3.9475,151.206,637.785,-144.41,148.564,487.211,-304.461,186.68,345.765,-378.953,223.604,375.004,-288.968,219.295,193.595
55,0,79.7163,446.086,1139.77,77.6272,175.629,1121.74,-130.156,353.291,1195.7,-122.901,247.918,1187.49,68.865,504.88,860.485,99.3956,466.036,665.228,78.5736,455.442,457.497,24.8649,400.038,240.848,-42.4232,353.212,195.259,178.043,389.073,194.096,33.6467,125.969,827.815,13.0487,150.221,635.648,-137.463,147.134,488.562,-300.725,185.628,351.049,-373.691,223.354,383.305,-292.185,218.469,196.769
56,0,79.7533,447.153,1138.53,77.3976,176.553,1120.25,-130.391,354.147,1194.4,-123.25,248.877,1185.59,67.6896,506.192,859.513,97.2681,467.009,663.715,73.4354,455.77,456.163,16.107,399.94,240.414,-51.5379,353.18,195.488,169.102,388.808,193.75,39.1836,125.715,826.591,22.3407,149.297,633.94,-129.908,145.705,490.11,-296.124,184.616,356.381,-367.795,223.097,391.22,-293.426,217.398,200.395
57,0,79.6053,448.172,1137.46,77.0358,177.396,1118.93,-130.755,354.936,1193.34,-123.723,249.779,1183.91,65.6742,507.452,858.481,94.5203,467.972,662.299,67.9133,456.107,454.956,7.46921,399.837,239.987,-60.4741,353.104,195.717,160.223,388.532,193.542,44.5469,125.465,825.735,31.7504,148.464,632.718,-121.807,144.313,491.831,-290.693,183.654,361.656,-361.394,222.823,398.56,-292.523,216.066,204.371
58,0,79.2711,449.137,1136.57,76.5444,178.158,1117.8,-131.245,355.656,1192.51,-124.314,250.621,1182.48,62.8973,508.62,857.426,91.1477,468.909,660.993,62.0025,456.443,453.877,-1.08721,399.778,239.598,-69.2916,352.998,195.954,151.38,388.258,193.399,49.6639,125.238,825.255,41.2093,147.751,632.027,-113.224,142.996,493.695,-284.47,182.749,366.753,-354.598,222.526,405.141,-289.362,214.474,208.565
59,0,78.7515,450.046,1135.86,75.9288,178.838,1116.89,-131.858,356.309,1191.94,-125.018,251.401,1181.33,59.4688,509.667,856.394,87.1601,469.804,659.81,55.709,456.773,452.928,-9.59931,399.768,239.269,-78.0431,352.877,196.214,142.548,387.994,193.27,54.4762,125.047,825.151,50.654,147.181,631.899,-104.226,141.789,495.663,-277.49,181.905,371.537,-347.491,222.197,410.789,-283.899,212.644,212.827
60,0,78.05,450.896,1135.33,75.1971,179.439,1116.23,-132.588,356.893,1191.64,-125.823,252.114,1180.48,55.5141,510.573,855.438,82.5808,470.647,658.766,49.0498,457.09,452.117,-18.0897,399.794,239.015,-86.7697,352.761,196.513,133.711,387.748,193.124,58.9418,124.903,825.413,60.0243,146.769,632.353,-94.8819,140.723,497.695,-269.792,181.12,375.868,-340.132,221.825,415.344,-276.155,210.62,216.991
61,0,77.172,451.688,1134.98,74.3594,179.965,1115.83,-133.426,357.409,1191.59,-126.722,252.757,1179.95,51.1596,511.328,854.61,77.4446,471.427,657.872,42.0509,457.394,451.453,-26.5707,399.849,238.856,-95.4998,352.666,196.869,124.86,387.525,192.945,63.0361,124.815,826.032,69.2625,146.529,633.397,-85.2607,139.825,499.748,-261.41,180.389,379.606,-332.547,221.395,418.666,-266.213,208.462,220.898
62,0,76.1251,452.42,1134.82,73.428,180.421,1115.7,-134.365,357.857,1191.81,-127.7,253.325,1179.74,46.5212,511.927,853.951,71.7957,472.137,657.141,34.7454,457.682,450.947,-35.0576,399.938,238.814,-104.25,352.612,197.301,115.986,387.327,192.736,66.7513,124.787,826.992,78.3116,146.466,635.023,-75.4312,139.111,501.782,-252.377,179.702,382.619,-324.734,220.891,420.639,-254.209,206.242,224.398
63,0,74.9188,453.095,1134.83,72.4169,180.816,1115.87,-135.393,358.233,1192.29,-128.746,253.814,1179.86,41.696,512.376,853.493,65.6855,472.772,656.584,27.1704,457.954,450.609,-43.5761,400.058,238.905,-113.025,352.609,197.824,107.085,387.155,192.502,70.0938,124.818,828.279,87.1141,146.581,637.211,-65.4615,138.59,503.754,-242.724,179.048,384.785,-316.665,220.295,421.173,-240.316,204.039,227.366
64,0,73.564,453.714,1135,71.3416,181.156,1116.32,-136.502,358.539,1193.01,-129.846,254.22,1180.3,36.7593,512.682,853.253,59.1703,473.327,656.209,19.3644,458.213,450.449,-52.1557,400.196,239.139,-121.825,352.666,198.456,98.1548,387.007,192.257,73.0819,124.904,829.878,95.6114,146.869,639.928,-55.4182,138.263,505.627,-232.479,178.415,386.005,-308.293,219.593,420.205,-224.733,201.926,229.709
65,0,72.0732,454.28,1135.33,70.2186,181.451,1117.07,-137.678,358.77,1193.98,-130.985,254.541,1181.07,31.7638,512.857,853.235,52.3086,473.802,656.025,11.3655,458.458,450.476,-60.8139,400.343,239.516,-130.642,352.788,199.208,89.1918,386.882,192.011,75.7416,125.037,831.772,103.743,147.32,643.127,-45.3652,138.119,507.363,-221.666,177.792,386.201,-299.55,218.774,417.699,-207.664,199.968,231.37
66,0,70.4599,454.796,1135.8,69.0655,181.709,1118.09,-138.91,358.926,1195.17,-132.149,254.772,1182.15,26.7428,512.913,853.43,45.1594,474.194,656.033,3.20886,458.692,450.695,-69.5483,400.504,240.036,-139.469,352.973,200.092,80.1931,386.777,191.774,78.1033,125.204,833.943,111.448,147.922,646.748,-35.3634,138.142,508.93,-210.304,177.17,385.324,-290.362,217.838,413.649,-189.313,198.212,232.332
67,0,68.7388,455.264,1136.4,67.9001,181.937,1119.38,-140.185,359.004,1196.56,-133.323,254.911,1183.52,21.7136,512.864,853.823,37.7798,474.505,656.236,-5.07349,458.915,451.108,-78.3489,400.694,240.709,-148.298,353.216,201.12,71.1557,386.689,191.552,80.1986,125.39,836.372,118.664,148.655,650.724,-25.4688,138.308,510.295,-198.408,176.546,383.356,-280.646,216.792,408.076,-169.868,196.685,232.615
68,0,66.925,455.687,1137.12,66.7407,182.144,1120.91,-141.488,359.003,1198.14,-134.494,254.956,1185.16,16.6818,512.725,854.394,30.2239,474.737,656.63,-13.4534,459.128,451.714,-87.2128,400.916,241.553,-157.126,353.512,202.3,62.0765,386.617,191.346,82.0584,125.574,839.035,125.331,149.501,654.973,-15.7319,138.589,511.428,-185.985,175.92,380.306,-270.319,215.656,401.034,-149.499,195.393,232.271
69,0,65.0346,456.068,1137.93,65.6053,182.335,1122.68,-142.808,358.918,1199.89,-135.647,254.905,1187.04,11.6458,512.506,855.121,22.5415,474.891,657.211,-21.9064,459.33,452.507,-96.1372,401.153,242.581,-165.952,353.848,203.643,52.953,386.559,191.155,83.7108,125.738,841.907,131.39,150.434,659.41,-6.19682,138.956,512.304,-173.039,175.298,376.22,-259.302,214.461,392.606,-128.357,194.322,231.383
70,0,63.084,456.409,1138.82,64.5116,182.517,1124.65,-144.129,358.749,1201.77,-136.768,254.759,1189.13,6.59998,512.219,855.983,14.7776,474.97,657.969,-30.4105,459.516,453.481,-105.1,401.375,243.778,-174.781,354.214,205.16,43.7828,386.512,190.977,85.1811,125.861,844.956,136.787,151.429,663.943,3.09985,139.379,512.898,-159.568,174.693,371.168,-247.519,213.245,382.909,-106.572,193.446,230.052
71,0,61.09,456.711,1139.79,63.4768,182.692,1126.79,-145.438,358.492,1203.78,-137.844,254.517,1191.4,1.53741,511.871,856.961,6.9723,474.977,658.893,-38.9461,459.682,454.623,-114.057,401.559,245.11,-183.621,354.597,206.859,34.5642,386.474,190.806,86.4916,125.925,848.151,141.476,152.457,668.481,12.1291,139.828,513.19,-145.57,174.119,365.251,-234.909,212.054,372.088,-84.2578,192.729,228.393
72,0,59.0697,456.975,1140.8,62.5169,182.863,1129.07,-146.721,358.147,1205.88,-138.863,254.18,1193.81,-3.54791,511.467,858.037,-0.838952,474.915,659.969,-47.4943,459.822,455.919,-122.975,401.701,246.555,-192.482,354.98,208.749,25.2953,386.439,190.639,87.6623,125.915,851.454,145.415,153.489,672.932,20.8695,140.28,513.167,-131.044,173.597,358.596,-221.425,210.935,360.321,-61.5198,192.135,226.527
73,0,57.0403,457.202,1141.84,61.647,183.031,1131.46,-147.965,357.709,1208.04,-139.812,253.748,1196.33,-8.65912,511.007,859.196,-8.62475,474.785,661.178,-56.0367,459.925,457.353,-131.851,401.811,248.118,-201.375,355.349,210.834,15.9746,386.403,190.472,88.711,125.821,854.825,148.577,154.495,677.208,29.3063,140.713,512.821,-115.994,173.147,351.347,-207.037,209.936,347.811,-38.4573,191.636,224.575
74,0,55.0193,457.391,1142.9,60.8807,183.196,1133.92,-149.156,357.179,1210.23,-140.68,253.222,1198.9,-13.7946,510.489,860.423,-16.3569,474.591,662.502,-64.5545,459.982,458.907,-140.703,401.908,249.817,-210.306,355.685,213.113,6.59992,386.36,190.301,89.6535,125.637,858.222,150.94,155.444,681.231,37.4307,141.11,512.157,-100.433,172.792,343.667,-191.741,209.099,334.782,-15.1697,191.209,222.653
75,0,53.0242,457.54,1143.96,60.2304,183.355,1136.42,-150.283,356.555,1212.43,-141.456,252.605,1201.48,-18.9465,509.912,861.702,-24.0092,474.332,663.92,-73.0287,459.983,460.562,-149.539,402.004,251.647,-219.278,355.971,215.581,-2.83123,386.304,190.126,90.5033,125.363,861.602,152.5,156.306,684.931,45.2376,141.461,511.185,-84.3875,172.553,335.729,-175.557,208.464,321.475,8.23962,190.849,220.866
76,0,51.0727,457.649,1145.01,59.7065,183.505,1138.91,-151.332,355.836,1214.61,-142.132,251.897,1204.05,-24.099,509.27,863.016,-31.557,474.011,665.41,-81.4396,459.917,462.298,-158.335,402.092,253.561,-228.287,356.19,218.225,-12.322,386.227,189.946,91.2709,125.003,864.919,153.264,157.055,688.25,52.7244,141.758,509.93,-67.9039,172.449,327.711,-158.537,208.059,308.138,31.6607,190.562,219.306
77,0,49.1822,457.715,1146.04,59.3177,183.642,1141.37,-152.294,355.022,1216.73,-142.698,251.1,1206.55,-29.2274,508.56,864.346,-38.9756,473.628,666.948,-89.7676,459.776,464.093,-167.057,402.14,255.501,-237.326,356.326,221.03,-21.8761,386.124,189.761,91.9623,124.563,868.124,153.253,157.665,691.142,59.8884,141.999,508.424,-51.049,172.493,319.787,-140.767,207.905,295.016,54.975,190.366,218.049
78,0,47.3701,457.734,1147.02,59.071,183.762,1143.75,-153.157,354.114,1218.77,-143.147,250.217,1208.95,-34.2981,507.783,865.672,-46.2397,473.186,668.509,-97.9929,459.556,465.928,-175.696,402.104,257.435,-246.378,356.367,223.974,-31.4973,385.99,189.572,92.5776,124.051,871.169,152.503,158.118,693.579,66.7252,142.186,506.71,-33.9148,172.698,312.122,-122.367,208.013,282.344,78.0548,190.288,217.152
79,0,45.6533,457.705,1147.95,58.9713,183.858,1146.02,-153.913,353.113,1220.7,-143.473,249.25,1211.21,-39.2697,506.939,866.97,-53.3231,472.685,670.07,-106.096,459.254,467.783,-184.283,401.944,259.373,-255.428,356.305,227.033,-41.1892,385.822,189.38,93.1101,123.474,874.002,151.069,158.4,695.542,73.2266,142.324,504.836,-16.6197,173.067,304.865,-103.491,208.387,270.335,100.763,190.357,216.651
80,0,44.0483,457.623,1148.8,59.0214,183.924,1148.16,-154.555,352.022,1222.49,-143.671,248.201,1213.3,-44.0942,506.034,868.22,-60.1974,472.129,671.605,-114.06,458.873,469.637,-192.871,401.65,261.353,-264.456,356.138,230.187,-50.9548,385.619,189.189,93.5454,122.835,876.571,149.015,158.504,697.031,79.3799,142.423,502.852,0.690933,173.601,298.138,-84.3317,209.019,259.175,122.951,190.601,216.555
81,0,42.5708,457.485,1149.58,59.2222,183.952,1150.12,-155.076,350.843,1224.11,-143.739,247.072,1215.19,-48.72,505.077,869.398,-66.8324,471.521,673.089,-121.865,458.421,471.471,-201.512,401.243,263.41,-273.448,355.875,233.414,-60.7956,385.385,188.999,93.8617,122.138,878.825,146.425,158.431,698.054,85.1665,142.492,500.809,17.8457,174.295,292.036,-65.1121,209.896,249.01,144.462,191.041,216.848
82,0,41.2355,457.287,1150.27,59.5726,183.937,1151.89,-155.472,349.582,1225.54,-143.673,245.868,1216.84,-53.095,504.081,870.485,-73.1952,470.869,674.497,-129.494,457.909,473.268,-210.232,400.756,265.554,-282.392,355.528,236.696,-70.7118,385.124,188.814,94.0313,121.382,880.714,143.391,158.192,698.635,90.5622,142.547,498.753,34.6498,175.139,286.62,-46.0851,210.998,239.945,165.131,191.687,217.482
83,0,40.0556,457.026,1150.85,60.0693,183.87,1153.43,-155.739,348.243,1226.75,-143.476,244.593,1218.24,-57.1698,503.058,871.461,-79.2502,470.179,675.803,-136.93,457.353,475.008,-219.027,400.227,267.771,-291.281,355.12,240.021,-80.7014,384.843,188.638,94.0236,120.567,882.193,140.018,157.806,698.804,95.5373,142.602,496.722,50.8895,176.121,281.913,-27.5271,212.296,232.039,184.78,192.537,218.383
84,0,39.0429,456.697,1151.32,60.7071,183.745,1154.73,-155.877,346.835,1227.72,-143.15,243.251,1219.38,-60.9002,502.023,872.31,-84.959,469.462,676.981,-144.153,456.773,476.675,-227.859,399.69,270.034,-300.117,354.679,243.378,-90.7606,384.551,188.472,93.8092,119.695,883.226,136.419,157.301,698.602,100.058,142.675,494.744,66.3372,177.224,277.903,-9.73131,213.761,225.305,203.226,193.576,219.447
85,0,38.2069,456.296,1151.66,61.4788,183.553,1155.78,-155.885,345.364,1228.45,-142.699,241.848,1220.23,-64.2494,500.991,873.017,-90.2802,468.729,678.005,-151.145,456.19,478.25,-236.667,399.183,272.313,-308.904,354.241,246.764,-100.884,384.259,188.32,93.3652,118.775,883.785,132.71,156.713,698.074,104.086,142.783,492.836,80.7591,178.433,274.546,7.00056,215.359,219.709,220.28,194.781,220.55
86,0,37.5548,455.821,1151.86,62.3755,183.289,1156.56,-155.767,343.842,1228.9,-142.13,240.39,1220.79,-67.1886,499.973,873.568,-95.1692,467.995,678.848,-157.88,455.626,479.718,-245.392,398.74,274.599,-317.653,353.842,250.176,-111.064,383.975,188.182,92.681,117.821,883.86,129.008,156.081,697.269,107.585,142.944,491.002,93.9231,179.73,271.769,22.3687,217.055,215.182,235.752,196.115,221.553
87,0,37.0914,455.267,1151.92,63.3861,182.945,1157.07,-155.527,342.277,1229.08,-141.451,238.887,1221.06,-69.697,498.978,873.948,-99.5781,467.276,679.484,-164.333,455.102,481.062,-253.995,398.393,276.905,-326.376,353.52,253.618,-121.294,383.708,188.059,91.7638,116.861,883.457,125.426,155.449,696.238,110.519,143.173,489.239,105.609,181.098,269.478,36.0865,218.812,211.62,249.456,197.54,222.317
88,0,36.8181,454.632,1151.83,64.4982,182.516,1157.31,-155.17,340.683,1228.98,-140.674,237.347,1221.04,-71.7597,498.015,874.143,-103.457,466.589,679.885,-170.47,454.641,482.268,-262.467,398.161,279.255,-335.082,353.309,257.098,-131.566,383.465,187.947,90.6429,115.931,882.601,122.07,154.859,695.031,112.855,143.484,487.532,115.616,182.52,267.568,47.8929,220.597,208.896,261.219,199.016,222.713
89,0,36.7335,453.912,1151.57,65.6976,181.996,1157.27,-154.705,339.071,1228.6,-139.811,235.779,1220.74,-73.3661,497.088,874.135,-106.752,465.954,680.029,-176.255,454.259,483.323,-270.807,398.048,281.656,-343.772,353.24,260.63,-141.872,383.25,187.841,89.372,115.075,881.34,119.032,154.349,693.695,114.57,143.886,485.864,123.778,183.982,265.931,57.5657,222.375,206.869,270.89,200.503,222.637
90,0,36.8328,453.105,1151.14,66.9687,181.381,1156.97,-154.141,337.455,1227.94,-138.876,234.195,1220.18,-74.5066,496.198,873.906,-109.409,465.39,679.892,-181.644,453.973,484.218,-279.004,398.043,284.093,-352.438,353.336,264.234,-152.205,383.066,187.734,88.0287,114.341,879.737,116.39,153.951,692.273,115.65,144.382,484.214,129.968,185.465,264.465,64.9342,224.114,205.398,278.349,201.966,222.02
91,0,37.1078,452.209,1150.54,68.2947,180.667,1156.42,-153.488,335.849,1227.01,-137.886,232.606,1219.36,-75.1702,495.346,873.435,-111.374,464.919,679.454,-186.586,453.794,484.946,-287.033,398.127,286.541,-361.05,353.61,267.94,-162.558,382.908,187.613,86.7104,113.774,877.874,114.2,153.685,690.804,116.092,144.971,482.563,134.108,186.952,263.085,69.8908,225.786,204.346,283.522,203.379,220.839
92,0,37.5471,451.223,1149.77,69.6576,179.851,1155.63,-152.761,334.265,1225.81,-136.857,231.024,1218.32,-75.3421,494.535,872.702,-112.593,464.559,678.701,-191.026,453.731,485.505,-294.862,398.285,288.994,-369.558,354.062,271.788,-172.926,382.771,187.467,85.5261,113.409,875.841,112.496,153.558,689.317,115.908,145.643,480.898,136.176,188.423,261.725,72.4001,227.361,203.591,286.383,204.717,219.119
93,0,38.1361,450.148,1148.82,71.0386,178.932,1154.63,-151.972,332.716,1224.38,-135.806,229.46,1217.07,-75.0029,493.765,871.69,-113.015,464.329,677.625,-194.903,453.788,485.9,-302.458,398.521,291.466,-377.884,354.681,275.826,-183.303,382.645,187.284,84.5863,113.266,873.734,111.288,153.564,687.835,115.124,146.383,479.21,136.211,189.857,260.342,72.5042,228.816,203.033,286.97,205.964,216.932
94,0,38.8573,448.984,1147.7,72.418,177.91,1153.45,-151.137,331.216,1222.73,-134.753,227.927,1215.64,-74.1287,493.042,870.388,-112.596,464.248,676.223,-198.151,453.966,486.141,-309.784,398.868,293.982,-385.919,355.441,280.111,-193.682,382.514,187.053,83.989,113.34,871.644,110.559,153.68,686.375,113.778,147.167,477.497,134.307,191.228,258.917,70.3221,230.127,202.592,285.378,207.107,214.388
95,0,39.6906,447.734,1146.42,73.7761,176.788,1152.09,-150.271,329.774,1220.87,-133.717,226.435,1214.07,-72.693,492.371,868.791,-111.299,464.328,674.502,-200.704,454.264,486.241,-316.806,399.383,296.576,-393.529,356.305,284.709,-204.055,382.36,186.769,83.8067,113.599,869.653,110.268,153.873,684.943,111.919,147.967,475.765,130.615,192.508,257.455,66.0451,231.275,202.215,281.767,208.135,211.626
96,0,40.6141,446.4,1144.99,75.0925,175.568,1150.6,-149.39,328.401,1218.85,-132.714,224.993,1212.37,-70.6697,491.761,866.907,-109.096,464.581,672.479,-202.496,454.677,486.222,-323.493,400.113,299.302,-400.553,357.224,289.687,-214.41,382.162,186.435,84.0727,113.987,867.823,110.35,154.096,683.539,109.605,148.749,474.025,125.331,193.671,255.975,59.9251,232.243,201.87,276.348,209.038,208.795
97,0,41.6041,444.988,1143.41,76.3473,174.255,1148.99,-148.512,327.105,1216.68,-131.765,223.612,1210.59,-68.0374,491.223,864.755,-105.974,465.01,670.177,-203.463,455.199,486.11,-329.77,401.045,302.224,-406.813,358.14,295.112,-224.726,381.9,186.067,84.7724,114.422,866.194,110.72,154.296,682.158,106.897,149.479,472.291,118.686,194.689,254.51,52.2585,233.022,201.542,269.376,209.807,206.041
98,0,42.6361,443.504,1141.7,77.5211,172.856,1147.3,-147.653,325.891,1214.41,-130.885,222.298,1208.75,-64.7842,490.769,862.371,-101.932,465.617,667.635,-203.551,455.823,485.933,-335.447,402.085,305.38,-412.128,358.992,301.04,-234.973,381.554,185.694,85.838,114.811,864.78,111.276,154.418,680.787,103.853,150.121,470.58,110.93,195.538,253.096,43.3667,233.606,201.232,261.132,210.435,203.491
99,0,43.685,441.957,1139.88,78.5949,171.379,1145.56,-146.83,324.764,1212.05,-130.09,221.057,1206.88,-60.9123,490.407,859.799,-96.9866,466.394,664.894,-202.713,456.539,485.725,-340.177,403.074,308.753,-416.324,359.719,307.517,-245.105,381.111,185.362,87.1504,115.051,863.565,111.904,154.406,679.413,100.527,150.643,468.906,102.321,196.198,251.768,33.575,233.998,200.946,251.908,210.915,201.243
100,0,44.7265,440.354,1137.98,79.551,169.833,1143.79,-146.058,323.725,1209.66,-129.396,219.893,1205.02,-56.4424,490.144,857.1,-91.1691,467.328,662.009,-200.918,457.339,485.519,-343.546,403.846,312.304,-419.249,360.264,314.565,-255.054,380.57,185.133,88.5468,115.048,862.511,112.485,154.213,678.019,96.9632,151.016,467.28,93.107,196.659,250.556,23.1923,234.206,200.696,241.989,211.243,199.357
101,0,45.7366,438.707,1136.01,80.3731,168.227,1142.02,-145.354,322.774,1207.25,-128.815,218.809,1203.19,-51.4162,489.983,854.339,-84.5285,468.399,659.04,-198.151,458.211,485.351,-345.278,404.303,316.046,-420.788,360.582,322.181,-264.73,379.938,185.088,89.8353,114.722,861.56,112.901,153.8,676.59,93.1913,151.219,465.71,83.5156,196.918,249.478,12.4945,234.248,200.495,231.637,211.423,197.854
102,0,46.6934,437.028,1134.01,81.0467,166.574,1140.26,-144.731,321.908,1204.86,-128.358,217.805,1201.41,-45.8975,489.92,851.59,-77.1283,469.581,656.051,-194.416,459.144,485.254,-345.388,404.455,320.09,-420.875,360.639,330.332,-274.012,379.24,185.317,90.8134,114.019,860.643,113.04,153.143,675.113,89.2284,151.24,464.2,73.7421,196.981,248.543,1.71092,234.144,200.35,221.08,211.461,196.72
103,0,47.5765,435.327,1132,81.5591,164.884,1138.56,-144.201,321.124,1202.52,-128.035,216.88,1199.7,-39.9714,489.943,848.923,-69.0459,470.842,653.113,-189.734,460.123,485.262,-344.134,404.414,324.575,-419.503,360.416,338.95,-282.746,378.518,185.914,91.2892,112.915,859.689,112.803,152.235,673.577,85.0774,151.075,462.747,63.9443,196.864,247.748,-8.98177,233.924,200.265,210.499,211.372,195.911
104,0,48.3684,433.62,1130.01,81.8999,163.171,1136.91,-143.777,320.416,1200.27,-127.851,216.034,1198.1,-33.7409,490.036,846.407,-60.3694,472.144,650.296,-184.149,461.132,485.403,-341.812,404.324,329.54,-416.72,359.911,347.935,-290.75,377.826,186.972,91.1019,111.421,858.636,112.107,151.083,671.98,80.7298,150.73,461.348,54.2394,196.59,247.081,-19.4619,233.617,200.241,200.032,211.175,195.368
105,0,49.0541,431.918,1128.08,82.0614,161.446,1135.35,-143.467,319.779,1198.14,-127.813,215.263,1196.6,-27.3218,490.174,844.102,-51.1945,473.448,647.669,-177.721,462.153,485.706,-338.609,404.301,334.885,-412.635,359.138,357.155,-297.809,377.231,188.567,90.1389,109.578,857.44,110.891,149.711,670.324,76.1682,150.221,459.998,44.7044,196.191,246.525,-29.6591,233.257,200.271,189.767,210.892,195.017
106,0,49.6218,430.234,1126.23,82.0384,159.721,1133.88,-143.279,319.205,1196.14,-127.923,214.563,1195.24,-20.8368,490.333,842.06,-41.6212,474.713,645.3,-170.525,463.165,486.191,-334.643,404.41,340.469,-407.399,358.125,366.45,-303.687,376.805,190.75,88.3476,107.455,856.078,109.113,148.157,668.619,71.3711,149.57,458.694,35.3799,195.699,246.059,-39.5476,232.873,200.35,179.753,210.55,194.788
107,0,50.0627,428.583,1124.51,81.8284,158.008,1132.53,-143.217,318.686,1194.31,-128.18,213.93,1194.02,-14.4073,490.481,840.316,-31.7502,475.896,643.249,-162.65,464.142,486.875,-330.064,404.667,346.223,-401.201,356.913,375.64,-308.137,376.618,193.537,85.7394,105.141,854.558,106.756,146.468,666.884,66.3159,148.806,457.433,26.2755,195.149,245.662,-49.1367,232.493,200.468,170.001,210.173,194.619
108,0,50.3714,426.975,1122.93,81.4321,156.319,1131.3,-143.285,318.217,1192.67,-128.584,213.36,1192.95,-8.14704,490.593,838.897,-21.6796,476.96,641.572,-154.188,465.058,487.769,-325.064,405.039,352.159,-394.247,355.551,384.529,-310.912,376.727,196.901,82.3861,102.732,852.911,103.821,144.699,665.141,60.9835,147.963,456.218,17.377,194.574,245.318,-58.46,232.14,200.618,160.497,209.785,194.457
109,0,50.5454,425.423,1121.54,80.8527,154.663,1130.2,-143.483,317.789,1191.23,-129.13,212.848,1192.05,-2.15443,490.642,837.816,-11.5017,477.869,640.316,-145.24,465.884,488.875,-319.74,405.44,358.245,-386.742,354.102,392.918,-311.783,377.172,200.77,78.4097,100.329,851.194,100.329,142.91,663.419,55.3607,147.076,455.053,8.65339,194.006,245.013,-67.5661,231.83,200.793,151.206,209.405,194.271
110,0,50.5855,423.936,1120.36,80.0963,153.05,1129.24,-143.81,317.398,1190.02,-129.813,212.391,1191.31,3.49233,490.611,837.075,-1.30129,478.592,639.518,-135.902,466.59,490.188,-313.983,405.74,364.319,-378.876,352.63,400.608,-310.556,377.968,205.032,73.9664,98.0253,849.475,96.3145,141.159,661.75,49.442,146.182,453.951,0.0639053,193.468,244.742,-76.509,231.574,200.99,142.084,209.047,194.04
111,0,50.4948,422.524,1119.42,79.1716,151.49,1128.43,-144.261,317.038,1189.04,-130.623,211.984,1190.75,8.73928,490.486,836.668,8.84602,479.105,639.205,-126.267,467.149,491.694,-307.556,405.819,370.126,-370.807,351.207,407.411,-307.085,379.098,209.533,69.2278,95.8999,847.829,91.8225,139.498,660.167,43.2301,145.315,452.924,-8.43585,192.981,244.504,-85.342,231.374,201.211,133.085,208.722,193.761
112,0,50.2794,421.194,1118.74,78.0899,149.991,1127.77,-144.832,316.705,1188.32,-131.552,211.623,1190.37,13.5582,490.263,836.581,18.8742,479.391,639.393,-116.418,467.534,493.372,-300.323,405.636,375.477,-362.654,349.903,413.157,-301.288,380.517,214.099,64.3619,94.0156,846.328,86.9038,137.976,658.702,36.7358,144.505,451.989,-16.8891,192.558,244.303,-94.112,231.229,201.46,124.161,208.434,193.44
113,0,49.9471,419.952,1118.33,76.8644,148.561,1127.27,-145.513,316.395,1187.85,-132.588,211.304,1190.17,17.9463,489.942,836.799,28.7262,479.439,640.086,-106.431,467.725,495.188,-292.395,405.264,380.321,-354.489,348.784,417.698,-293.154,382.152,218.54,59.5156,92.4155,845.034,81.6113,136.63,657.382,29.976,143.777,451.163,-25.3343,192.207,244.151,-102.858,231.134,201.745,115.273,208.185,193.091
114,0,49.508,418.804,1118.21,75.5103,147.206,1126.93,-146.295,316.107,1187.63,-133.717,211.025,1190.15,21.9235,489.533,837.302,38.353,479.245,641.279,-96.3696,467.706,497.105,-283.988,404.845,384.632,-346.336,347.909,420.91,-282.742,383.913,222.672,54.8022,91.1232,843.988,75.9964,135.488,656.233,22.9724,143.152,450.465,-33.8029,191.93,244.059,-111.608,231.079,202.079,106.386,207.971,192.732
115,0,48.9736,417.751,1118.4,74.0444,145.932,1126.75,-147.167,315.84,1187.68,-134.926,210.783,1190.32,25.5281,489.047,838.074,47.7115,478.812,642.955,-86.2859,467.472,499.076,-275.177,404.501,388.246,-338.177,347.322,422.697,-270.178,385.701,226.326,50.2933,90.1443,843.213,70.1062,134.567,655.272,15.7493,142.644,449.913,-42.3186,191.726,244.042,-120.383,231.054,202.477,97.4753,207.787,192.378
116,0,48.3566,416.796,1118.89,72.4844,144.747,1126.72,-148.117,315.593,1187.99,-136.199,210.575,1190.67,28.8115,488.499,839.097,56.7623,478.148,645.086,-76.2218,467.024,501.049,-265.823,404.299,390.861,-329.958,347.046,422.989,-255.646,387.418,229.363,46.0173,89.469,842.713,63.9821,133.874,654.513,8.33135,142.259,449.521,-50.897,191.588,244.116,-129.194,231.048,202.956,88.5234,207.63,192.044
117,0,47.6708,415.939,1119.68,70.849,143.653,1126.85,-149.13,315.367,1188.56,-137.519,210.399,1191.21,31.8317,487.905,840.359,65.4673,477.265,647.635,-66.2095,466.372,502.969,-255.734,404.251,392.185,-321.594,347.086,421.742,-239.369,388.981,231.682,41.9622,89.0759,842.473,57.6585,133.405,653.962,0.742589,142,449.301,-59.5462,191.511,244.295,-138.047,231.052,203.534,79.5189,207.491,191.741
118,0,46.9311,415.18,1120.77,69.1572,142.656,1127.14,-150.191,315.164,1189.37,-138.871,210.253,1191.92,34.6472,487.282,841.848,73.7878,476.181,650.559,-56.273,465.535,504.78,-244.839,404.342,392.074,-312.982,347.42,418.937,-221.593,390.328,233.225,38.0837,88.9349,842.465,51.1635,133.151,653.622,-6.99501,141.861,449.264,-68.2679,191.485,244.593,-146.944,231.056,204.232,70.4559,207.367,191.473
119,0,46.1525,414.517,1122.15,67.4282,141.76,1127.57,-151.287,314.985,1190.41,-140.238,210.137,1192.82,37.3107,486.643,843.558,81.6821,474.916,653.803,-46.4297,464.537,506.425,-233.219,404.54,390.551,-304.007,348.006,414.577,-202.566,391.428,233.977,34.3152,89.0114,842.656,44.519,133.091,653.489,-14.8618,141.834,449.415,-77.0588,191.5,245.02,-155.882,231.056,205.067,61.3324,207.251,191.241
120,0,45.351,413.948,1123.78,65.6807,140.967,1128.14,-152.4,314.834,1191.67,-141.601,210.049,1193.87,39.8653,486,845.484,89.1044,473.492,657.309,-36.6923,463.411,507.852,-221.036,404.803,387.747,-294.55,348.783,408.69,-182.523,392.275,233.965,30.5793,89.2695,843.01,37.7422,133.202,653.559,-22.8402,141.906,449.756,-85.9115,191.548,245.587,-164.858,231.047,206.059,52.1486,207.14,191.04
121,0,44.5427,413.469,1125.66,63.9331,140.28,1128.85,-153.514,314.713,1193.13,-142.946,209.99,1195.09,42.3405,485.364,847.62,96.0042,471.934,661.01,-27.0701,462.189,509.012,-208.445,405.089,383.831,-284.493,349.674,401.323,-161.674,392.894,233.251,26.7992,89.6742,843.494,30.8473,133.456,653.822,-30.9145,142.062,450.287,-94.816,191.619,246.299,-173.866,231.026,207.222,42.9062,207.031,190.865
122,0,43.7437,413.075,1127.75,62.2028,139.698,1129.67,-154.614,314.628,1194.77,-144.256,209.961,1196.46,44.751,484.742,849.962,102.327,470.268,664.838,-17.5713,460.907,509.866,-195.522,405.362,378.953,-273.722,350.602,392.547,-140.188,393.327,231.927,22.9082,90.1939,844.083,23.8468,133.825,654.27,-39.0697,142.285,451.004,-103.76,191.704,247.161,-182.902,230.993,208.571,33.6071,206.921,190.707
123,0,42.9707,412.764,1130.03,60.5064,139.224,1130.61,-155.684,314.581,1196.55,-145.516,209.963,1197.96,47.0973,484.138,852.501,108.014,468.519,668.72,-8.20412,459.601,510.382,-182.265,405.602,373.227,-262.13,351.488,382.457,-118.196,393.632,230.111,18.8566,90.801,844.757,16.7535,134.275,654.891,-47.2907,142.557,451.9,-112.732,191.795,248.175,-191.957,230.947,210.118,24.2529,206.808,190.558
124,0,42.2399,412.528,1132.45,58.8591,138.856,1131.65,-156.708,314.579,1198.46,-146.713,209.999,1199.58,49.3665,483.557,855.223,113.008,466.715,672.581,1.02112,458.304,510.54,-168.627,405.789,366.745,-249.62,352.268,371.175,-95.7902,393.862,227.933,14.6165,91.4723,845.506,9.58155,134.779,655.675,-55.5615,142.859,452.965,-121.719,191.884,249.34,-201.026,230.888,211.87,14.8448,206.691,190.41
125,0,41.5677,412.365,1134.98,57.2752,138.591,1132.76,-157.671,314.626,1200.47,-147.832,210.072,1201.29,51.5357,483.001,858.107,117.25,464.882,676.347,10.0905,457.043,510.333,-154.541,405.89,359.573,-236.107,352.895,358.848,-73.0258,394.066,225.54,10.1829,92.1887,846.326,2.34796,135.307,656.61,-63.8649,143.173,454.19,-130.709,191.963,250.656,-210.101,230.814,213.832,5.38294,206.569,190.258
126,0,40.9697,412.267,1137.58,55.7675,138.427,1133.95,-158.56,314.729,1202.53,-148.864,210.189,1203.08,53.5745,482.472,861.121,120.688,463.049,679.946,18.9851,455.845,509.766,-139.918,405.864,351.757,-221.522,353.343,345.652,-49.9348,394.273,223.08,5.5728,92.9344,847.219,-4.92681,135.833,657.683,-72.1816,143.484,455.562,-139.69,192.025,252.117,-219.174,230.724,216.005,-4.13325,206.44,190.099
127,0,40.4612,412.231,1140.21,54.3476,138.359,1135.19,-159.362,314.893,1204.62,-149.799,210.353,1204.92,55.4483,481.971,864.225,123.28,461.242,683.309,27.6796,454.727,508.859,-124.654,405.68,343.333,-205.817,353.609,331.792,-26.5357,394.491,220.705,0.822519,93.6961,848.184,-12.2181,136.335,658.879,-80.4909,143.777,457.064,-148.653,192.062,253.719,-228.236,230.613,218.386,-13.7049,206.304,189.93
128,0,40.0564,412.25,1142.83,53.0257,138.384,1136.45,-160.065,315.126,1206.71,-150.629,210.572,1206.79,57.1209,481.501,867.364,124.993,459.486,686.372,36.1416,453.704,507.644,-108.668,405.347,334.374,-188.97,353.709,317.5,-2.84718,394.709,218.559,-4.01643,94.4621,849.224,-19.4972,136.795,660.184,-88.7704,144.037,458.681,-157.589,192.068,255.451,-237.279,230.478,220.968,-23.3333,206.158,189.752
129,0,39.7686,412.319,1145.39,51.8107,138.494,1137.73,-160.658,315.433,1208.75,-151.348,210.853,1208.64,58.5563,481.067,870.477,125.815,457.807,689.08,44.3318,452.785,506.166,-91.9404,404.918,325.021,-170.995,353.677,303.03,21.0981,394.894,216.779,-8.88198,95.2221,850.335,-26.7308,137.2,661.58,-96.9967,144.254,460.395,-166.494,192.035,257.306,-246.295,230.311,223.739,-33.0199,206.002,189.567
130,0,39.6093,412.435,1147.87,50.7101,138.684,1139.01,-161.134,315.822,1210.72,-151.952,211.204,1210.47,59.72,480.676,873.491,125.751,456.225,691.387,52.2042,451.973,504.476,-74.5277,404.484,315.487,-151.951,353.551,288.653,45.2408,395.003,215.483,-13.7062,95.9665,851.509,-33.8821,137.541,663.046,-105.146,144.419,462.186,-175.361,191.957,259.269,-255.278,230.107,226.683,-42.7656,205.834,189.381
131,0,39.5883,412.592,1150.21,49.7303,138.948,1140.26,-161.484,316.298,1212.58,-152.437,211.63,1212.22,60.5802,480.338,876.326,124.831,454.762,693.259,59.7074,451.268,502.632,-56.5404,404.127,306.029,-131.95,353.369,274.648,69.4842,394.991,214.759,-18.4195,96.6874,852.732,-40.9109,137.815,664.56,-113.193,144.527,464.032,-184.19,191.828,261.328,-264.224,229.859,229.784,-52.5705,205.652,189.195
132,0,39.7129,412.788,1152.4,48.8761,139.278,1141.46,-161.705,316.867,1214.29,-152.805,212.141,1213.87,61.108,480.069,878.901,123.107,453.432,694.673,66.7871,450.665,500.694,-38.1033,403.887,296.91,-111.167,353.163,261.287,93.6855,394.818,214.665,-22.9546,97.3783,853.982,-47.7744,138.026,666.095,-121.115,144.573,465.91,-192.978,191.644,263.466,-273.128,229.558,233.018,-62.4334,205.457,189.016
133,0,39.9882,413.018,1154.39,48.1511,139.67,1142.59,-161.794,317.533,1215.84,-153.054,212.74,1215.38,61.279,479.885,881.135,120.657,452.248,695.621,73.3881,450.154,498.715,-19.327,403.743,288.361,-89.843,352.948,248.826,117.651,394.459,215.211,-27.2495,98.0354,855.232,-54.4277,138.179,667.623,-128.888,144.559,467.796,-201.728,191.401,265.668,-281.991,229.199,236.362,-72.3514,205.246,188.846
134,0,40.4164,413.282,1156.15,47.5575,140.116,1143.63,-161.749,318.299,1217.19,-153.189,213.435,1216.74,61.0742,479.806,882.955,117.582,451.217,696.11,79.4572,449.724,496.745,-0.330313,403.63,280.572,-68.2894,352.726,237.483,141.137,393.908,216.357,-31.2498,98.6581,856.45,-60.8243,138.286,669.112,-136.488,144.485,469.663,-210.44,191.096,267.915,-290.814,228.774,239.792,-82.3203,205.02,188.688
135,0,40.9965,413.577,1157.68,47.096,140.613,1144.57,-161.573,319.167,1218.32,-153.212,214.226,1217.89,60.4832,479.852,884.296,114.006,450.341,696.158,84.9461,449.36,494.823,18.6883,403.459,273.714,-46.8827,352.483,227.433,163.849,393.177,218.008,-34.9105,99.2499,857.599,-66.9169,138.362,670.527,-143.891,144.357,471.485,-219.116,190.73,270.192,-299.602,228.277,243.282,-92.3337,204.778,188.542
136,0,41.7243,413.905,1158.95,46.7657,141.157,1145.38,-161.27,320.136,1219.22,-153.13,215.117,1218.83,59.5073,480.037,885.113,110.066,449.617,695.798,89.8135,449.045,492.974,37.4013,403.141,267.945,-26.0545,352.194,218.791,185.456,392.297,220.016,-38.1968,99.8185,858.641,-72.657,138.423,671.833,-151.073,144.183,473.236,-227.757,190.301,272.482,-308.36,227.702,246.813,-102.384,204.52,188.407
137,0,42.5925,414.265,1159.94,46.5641,141.745,1146.04,-160.846,321.203,1219.87,-152.949,216.105,1219.53,58.1636,480.371,885.382,105.915,449.036,695.073,94.0274,448.761,491.212,55.3669,402.609,263.383,-6.27447,351.831,211.603,205.603,391.309,222.19,-41.0843,100.376,859.536,-77.9955,138.488,672.99,-158.006,143.972,474.891,-236.361,189.811,274.775,-317.094,227.042,250.364,-112.463,204.248,188.279
138,0,43.5904,414.659,1160.65,46.4872,142.376,1146.55,-160.311,322.363,1220.26,-152.676,217.187,1219.96,56.4894,480.852,885.103,101.709,448.586,694.036,97.5662,448.488,489.536,72.0853,401.834,260.064,11.9735,351.365,205.85,223.924,390.256,224.305,-43.5585,100.938,860.248,-82.8818,138.573,673.96,-164.662,143.734,476.424,-244.923,189.264,277.06,-325.807,226.294,253.925,-122.563,203.962,188.153
139,0,44.7043,415.089,1161.08,46.5291,143.049,1146.88,-159.674,323.609,1220.4,-152.321,218.356,1220.12,54.5456,481.465,884.305,97.5995,448.254,692.746,100.419,448.208,487.936,87.0648,400.845,257.903,28.2197,350.776,201.449,240.073,389.178,226.128,-45.6134,101.522,860.742,-87.2643,138.693,674.704,-171.008,143.481,477.814,-253.432,188.664,279.335,-334.498,225.456,257.492,-132.675,203.664,188.021
140,0,45.9174,415.56,1161.23,46.6824,143.764,1147.02,-158.95,324.931,1220.28,-151.893,219.605,1219.99,52.4185,482.182,883.043,93.7316,448.022,691.265,102.587,447.907,486.393,99.9055,399.727,256.687,42.04,350.057,198.26,253.738,388.1,227.439,-47.2491,102.148,860.987,-91.0892,138.859,675.184,-177.005,143.222,479.043,-261.87,188.017,281.602,-343.159,224.528,261.073,-142.796,203.357,187.875
141,0,47.2107,416.074,1161.1,46.9378,144.523,1146.96,-158.152,326.317,1219.9,-151.402,220.921,1219.57,50.2189,482.961,881.4,90.2306,447.873,689.655,104.08,447.573,484.884,110.371,398.609,256.075,53.0874,349.215,196.107,264.673,387.036,228.056,-48.469,102.834,860.958,-94.3009,139.077,675.366,-182.613,142.968,480.098,-270.21,187.329,283.869,-351.77,223.517,264.686,-152.923,203.042,187.704
142,0,48.563,416.637,1160.72,47.2847,145.328,1146.7,-157.297,327.754,1219.29,-150.86,222.292,1218.87,48.078,483.752,879.479,87.1976,447.794,687.974,104.92,447.2,483.383,118.369,397.621,255.651,61.1199,348.268,194.789,272.716,385.982,227.857,-49.2771,103.595,860.637,-96.8419,139.345,675.219,-187.783,142.726,480.971,-278.413,186.61,286.153,-360.295,222.435,268.364,-163.059,202.725,187.5
143,0,49.9514,417.252,1160.1,47.7108,146.182,1146.23,-156.402,329.224,1218.46,-150.279,223.702,1217.89,46.1391,484.501,877.399,84.7039,447.774,686.278,105.136,446.787,481.868,123.804,396.831,255.01,66.0219,347.249,194.1,277.803,384.926,226.795,-49.6742,104.438,860.008,-98.6536,139.656,674.716,-192.462,142.499,481.661,-286.429,185.867,288.475,-368.681,221.302,272.153,-173.211,202.409,187.257
144,0,51.3522,417.924,1159.26,48.2028,147.086,1145.55,-155.485,330.714,1217.43,-149.669,225.137,1216.65,44.5454,485.16,875.285,82.7869,447.806,684.61,104.765,446.342,480.324,126.4,396.195,253.855,67.8151,346.196,193.848,279.981,383.852,224.903,-49.6559,105.367,859.067,-99.6774,139.996,673.839,-196.596,142.288,482.173,-294.197,185.113,290.865,-376.855,220.146,276.112,-183.39,202.1,186.971
145,0,52.7412,418.657,1158.22,48.7461,148.042,1144.67,-154.565,332.204,1216.22,-149.044,226.579,1215.17,43.4261,485.691,873.26,81.4483,447.889,683.005,103.85,445.88,478.742,125.71,395.53,252.084,66.6579,345.151,193.868,279.408,382.746,222.294,-49.2101,106.372,857.812,-99.8572,140.345,672.577,-200.124,142.09,482.521,-301.644,184.359,293.356,-384.722,219.003,280.308,-193.607,201.807,186.644
146,0,54.0945,419.455,1157.01,49.3258,149.051,1143.6,-153.661,333.679,1214.86,-148.416,228.013,1213.46,42.8789,486.08,871.43,80.6545,448.028,681.488,102.435,445.421,477.119,121.446,394.576,249.83,62.8317,344.155,194.025,276.339,381.606,219.14,-48.3164,107.438,856.253,-99.1423,140.677,670.93,-202.987,141.898,482.726,-308.688,183.617,295.986,-392.169,217.916,284.817,-203.874,201.536,186.289
147,0,55.3889,420.319,1155.67,49.9261,150.115,1142.34,-152.79,335.122,1213.38,-147.797,229.423,1211.55,42.9559,486.334,869.879,80.3394,448.233,680.07,100.568,444.992,475.462,113.955,393.127,247.427,56.7154,343.248,194.226,271.109,380.444,215.655,-46.9478,108.537,854.405,-97.4911,140.964,668.91,-205.127,141.7,482.816,-315.237,182.9,298.793,-399.064,216.935,289.714,-214.197,201.299,185.924
148,0,56.603,421.251,1154.23,50.5315,151.231,1140.92,-151.969,336.52,1211.8,-147.199,230.795,1209.49,43.6501,486.488,868.655,80.4087,448.516,678.754,98.2937,444.619,473.785,104.386,391.187,245.29,48.7519,342.461,194.41,264.108,379.286,212.064,-45.0727,109.639,852.294,-94.8753,141.177,666.54,-206.493,141.483,482.827,-321.2,182.218,301.816,-405.266,216.111,295.071,-224.571,201.103,185.582
149,0,57.717,422.251,1152.7,51.1268,152.397,1139.35,-151.215,337.858,1210.16,-146.633,232.118,1207.29,44.8898,486.598,867.773,80.7464,448.892,677.532,95.6517,444.33,472.104,94.2443,389.031,243.741,39.4088,341.818,194.55,255.744,378.169,208.58,-42.6597,110.706,849.957,-91.284,141.289,663.858,-207.038,141.23,482.798,-326.482,181.584,305.09,-410.631,215.491,300.945,-234.974,200.959,185.304
150,0,58.7136,423.32,1151.14,51.697,153.61,1137.65,-150.542,339.127,1208.48,-146.111,233.38,1204.99,46.5384,486.737,867.207,81.2219,449.376,676.39,92.6761,444.149,470.436,84.6082,387.094,242.858,29.1411,341.332,194.641,246.418,377.136,205.379,-39.683,111.7,847.438,-86.7273,141.277,660.912,-206.729,140.924,482.772,-330.996,181.005,308.643,-415.02,215.118,307.378,-245.359,200.872,185.146
151,0,59.5783,424.453,1149.56,52.2284,154.865,1135.86,-149.962,340.319,1206.8,-145.644,234.577,1202.64,48.4041,486.981,866.9,81.6979,449.979,675.307,89.3915,444.094,468.799,75.6875,385.757,242.481,18.3576,341.007,194.691,236.492,376.227,202.587,-36.1295,112.588,844.792,-81.2388,141.127,657.765,-205.541,140.55,482.794,-334.662,180.49,312.499,-418.313,215.02,314.385,-255.654,200.848,185.169
152,0,60.2993,425.647,1148,52.7083,156.155,1134,-149.487,341.429,1205.14,-145.241,235.702,1200.26,50.256,487.401,866.767,82.0382,450.709,674.26,85.8131,444.173,467.206,67.0796,385.181,242.347,7.39728,340.832,194.717,226.273,375.472,200.269,-32.0044,113.342,842.083,-74.8764,140.831,654.49,-203.468,140.094,482.907,-337.416,180.041,316.666,-420.413,215.21,321.951,-265.747,200.886,185.444
153,0,60.8682,426.897,1146.48,53.1253,157.472,1132.11,-149.124,342.454,1203.53,-144.91,236.755,1197.89,51.8475,488.052,866.709,82.1146,451.565,673.229,81.946,444.385,465.667,58.3543,385.279,242.261,-3.48403,340.789,194.732,215.997,374.886,198.439,-27.3369,113.944,839.381,-67.7212,140.394,651.166,-200.514,139.549,483.151,-339.206,179.659,321.147,-421.259,215.681,330.032,-275.496,200.98,186.041
154,0,61.2793,428.197,1145.03,53.4695,158.808,1130.21,-148.881,343.395,1201.99,-144.66,237.737,1195.58,52.9416,488.964,866.624,81.8131,452.542,672.192,77.7866,444.72,464.189,49.3858,385.812,242.145,-14.1165,340.847,194.751,205.829,374.469,197.064,-22.1834,114.392,836.755,-59.874,139.83,647.878,-196.701,138.911,483.56,-340.001,179.343,325.926,-420.83,216.405,338.55,-284.719,201.12,187.026
155,0,61.5301,429.538,1143.68,53.7326,160.154,1128.35,-148.761,344.256,1200.55,-144.497,238.65,1193.34,53.337,490.137,866.424,81.0384,453.624,671.134,73.3249,445.158,462.775,40.2899,386.509,241.981,-24.4093,340.971,194.779,195.868,374.201,196.077,-16.6284,114.691,834.277,-51.4507,139.165,644.715,-192.063,138.185,484.163,-339.786,179.086,330.978,-419.147,217.338,347.396,-293.206,201.287,188.454
156,0,61.6206,430.911,1142.43,53.908,161.499,1126.55,-148.767,345.041,1199.23,-144.425,239.5,1191.23,52.8893,491.543,866.04,79.7166,454.79,670.046,68.547,445.671,461.425,31.2237,387.158,241.748,-34.3378,341.121,194.817,186.154,374.054,195.395,-10.7816,114.864,832.011,-42.5751,138.433,641.762,-186.645,137.386,484.978,-338.564,178.882,336.261,-416.273,218.414,356.435,-300.72,201.461,190.361
157,0,61.5532,432.307,1141.32,53.9905,162.835,1124.86,-148.897,345.758,1198.04,-144.449,240.292,1189.25,51.525,493.129,865.436,77.7971,456.012,668.926,63.4383,446.227,460.139,22.2756,387.635,241.41,-43.9263,341.262,194.865,176.688,373.989,194.929,-4.77278,114.937,830.013,-33.3722,137.674,639.098,-180.502,136.533,486.015,-336.352,178.722,341.721,-412.306,219.562,365.512,-307.014,201.614,192.76
158,0,61.3323,433.716,1140.34,53.9766,164.15,1123.29,-149.15,346.414,1197,-144.57,241.034,1187.45,49.2475,494.823,864.611,75.2517,457.261,667.779,57.9866,446.792,458.919,13.4599,387.904,240.957,-53.2306,341.361,194.918,167.438,373.969,194.602,1.25728,114.947,828.326,-23.9605,136.932,636.795,-173.696,135.655,487.275,-333.18,178.596,347.288,-407.375,220.704,374.457,-311.84,201.719,195.636
159,0,60.964,435.125,1139.5,53.8644,165.436,1121.89,-149.523,347.02,1196.12,-144.791,241.733,1185.85,46.1324,496.545,863.593,72.0738,458.503,666.614,52.1845,447.336,457.767,4.74558,387.986,240.419,-62.3212,341.398,194.973,158.358,373.957,194.345,7.16662,114.929,826.981,-14.4458,136.252,634.916,-166.293,134.787,488.751,-329.085,178.493,352.88,-401.625,221.762,383.092,-314.965,201.748,198.944
160,0,60.4556,436.525,1138.82,53.653,166.684,1120.67,-150.009,347.583,1195.42,-145.109,242.396,1184.48,42.3144,498.213,862.439,68.2758,459.705,665.449,46.0309,447.83,456.69,-3.91711,387.923,239.859,-71.2711,341.361,195.031,149.395,373.925,194.113,12.8235,114.916,825.994,-4.91691,135.676,633.511,-158.361,133.966,490.427,-324.113,178.405,358.406,-395.207,222.672,391.24,-316.185,201.676,202.606
161,0,59.8149,437.902,1138.29,53.3434,167.886,1119.67,-150.602,348.113,1194.89,-145.524,243.028,1183.34,37.9683,499.756,861.223,63.8856,460.837,664.304,39.5324,448.253,455.695,-12.5752,387.756,239.337,-80.1455,341.25,195.095,140.501,373.855,193.877,18.1168,114.936,825.37,4.55681,135.24,632.616,-149.97,133.232,492.281,-318.31,178.322,363.76,-388.267,223.379,398.727,-315.338,201.486,206.52
162,0,59.0506,439.248,1137.91,52.9374,169.034,1118.9,-151.296,348.617,1194.56,-146.032,243.634,1182.45,33.2857,501.115,860.024,58.9436,461.875,663.202,32.7029,448.592,454.791,-21.2588,387.522,238.886,-88.9968,341.076,195.171,131.633,373.738,193.624,22.9653,115.007,825.101,13.9256,134.972,632.258,-141.185,132.621,494.285,-311.727,178.234,368.834,-380.934,223.848,405.388,-312.313,201.167,210.561
163,0,58.1713,440.55,1137.68,52.4383,170.124,1118.38,-152.08,349.101,1194.41,-146.629,244.219,1181.83,28.4522,502.248,858.92,53.499,462.797,662.169,25.563,448.841,453.992,-29.977,387.263,238.505,-97.8619,340.855,195.269,122.758,373.574,193.353,27.3232,115.136,825.176,23.1568,134.89,632.449,-132.073,132.164,496.405,-304.409,178.137,373.513,-373.312,224.062,411.075,-307.058,200.717,214.592
164,0,57.1857,441.799,1137.59,51.8504,171.15,1118.11,-152.946,349.572,1194.46,-147.309,244.785,1181.49,23.6268,503.136,857.972,47.6063,463.59,661.226,18.1389,448.999,453.308,-38.7273,387.026,238.186,-106.763,340.607,195.402,113.852,373.369,193.069,31.1829,115.321,825.578,32.2309,135.001,633.192,-122.694,131.885,498.606,-296.405,178.022,377.68,-365.477,224.023,415.652,-299.582,200.144,218.469
165,0,56.102,442.986,1137.63,51.1792,172.108,1118.11,-153.884,350.032,1194.7,-148.066,245.332,1181.42,18.9277,503.777,857.225,41.3224,464.247,660.394,10.4605,449.073,452.752,-47.5119,386.852,237.935,-115.71,340.355,195.584,104.9,373.134,192.784,34.5735,115.552,826.294,41.1365,135.302,634.479,-113.109,131.796,500.848,-287.755,177.887,381.223,-357.468,223.747,419.004,-289.947,199.463,222.058
166,0,54.9285,444.102,1137.78,50.4314,172.996,1118.38,-154.885,350.484,1195.12,-148.894,245.86,1181.64,14.4239,504.182,856.701,34.704,464.767,659.692,2.56019,449.075,452.333,-56.3445,386.764,237.787,-124.701,340.116,195.828,95.8952,372.882,192.504,37.5558,115.812,827.31,49.8642,135.779,636.292,-103.373,131.9,503.088,-278.5,177.726,384.037,-349.295,223.265,421.034,-278.266,198.697,225.237
167,0,53.6729,445.141,1138.04,49.6149,173.813,1118.91,-155.937,350.926,1195.74,-149.783,246.367,1182.13,10.1343,504.379,856.399,27.8058,465.154,659.133,-5.52884,449.018,452.06,-65.2428,386.76,237.784,-133.731,339.906,196.151,86.8336,372.625,192.239,40.2142,116.081,828.618,58.4017,136.41,638.605,-93.5372,132.186,505.283,-268.672,177.54,386.026,-340.936,222.617,421.666,-264.687,197.873,227.906
168,0,52.3429,446.097,1138.39,48.7386,174.557,1119.69,-157.032,351.357,1196.53,-150.725,246.849,1182.88,6.0331,504.399,856.303,20.679,465.417,658.728,-13.7741,448.917,451.939,-74.2169,386.82,237.955,-142.789,339.733,196.565,77.7158,372.373,191.989,42.6466,116.339,830.216,66.7295,137.168,641.385,-83.6505,132.632,507.385,-258.299,177.327,387.112,-332.342,221.848,420.844,-249.386,197.015,229.997
169,0,50.9459,446.966,1138.81,47.8128,175.23,1120.72,-158.158,351.774,1197.49,-151.712,247.303,1183.9,2.06003,504.28,856.385,13.3706,465.57,658.482,-22.1444,448.786,451.975,-83.2677,386.906,238.297,-151.866,339.603,197.086,68.5445,372.133,191.756,44.9533,116.566,832.103,74.8176,138.021,644.589,-73.7562,133.206,509.349,-247.399,177.091,387.23,-323.445,221.004,418.537,-232.55,196.15,231.472
170,0,49.4896,447.746,1139.29,46.8487,175.831,1121.97,-159.305,352.172,1198.61,-152.732,247.724,1185.15,-1.86645,504.056,856.61,5.92293,465.626,658.398,-30.6108,448.639,452.169,-92.3913,386.973,238.784,-160.953,339.516,197.729,59.3236,371.91,191.535,47.2265,116.75,834.281,82.6246,138.938,648.167,-63.8926,133.87,511.127,-235.984,176.835,386.342,-314.159,220.132,414.735,-214.368,195.295,232.324
171,0,47.9816,448.436,1139.82,45.8589,176.364,1123.43,-160.463,352.543,1199.87,-153.775,248.107,1186.62,-5.83529,503.759,856.943,-1.62608,465.603,658.473,-39.1464,448.488,452.519,-101.576,386.986,239.375,-170.045,339.471,198.509,50.0575,371.707,191.324,49.5414,116.881,836.75,90.0981,139.885,652.063,-54.0925,134.582,512.672,-224.053,176.564,384.427,-304.388,219.271,409.454,-195.018,194.465,232.581
172,0,46.43,449.036,1140.38,44.8568,176.831,1125.08,-161.621,352.882,1201.26,-154.831,248.447,1188.29,-9.92982,503.414,857.354,-9.24269,465.516,658.705,-47.7265,448.339,453.024,-110.793,386.937,240.037,-179.14,339.463,199.443,40.7505,371.523,191.115,51.9493,116.955,839.507,97.1763,140.833,656.212,-44.3825,135.3,513.94,-211.599,176.286,381.493,-294.03,218.457,402.737,-174.666,193.666,232.296
173,0,44.8435,449.549,1140.96,43.857,177.234,1126.89,-162.768,353.179,1202.78,-155.888,248.737,1190.14,-14.2171,503.04,857.822,-16.8965,465.379,659.087,-56.3282,448.2,453.679,-119.995,386.847,240.76,-188.241,339.49,200.546,31.4069,371.358,190.907,54.4741,116.975,842.54,103.791,141.758,660.544,-34.7829,135.984,514.891,-198.603,176.009,377.573,-282.982,217.717,394.655,-153.458,192.9,231.546
174,0,43.2314,449.977,1141.54,42.8746,177.577,1128.83,-163.895,353.426,1204.38,-156.934,248.972,1192.13,-18.7407,502.647,858.333,-24.5599,465.204,659.612,-64.9298,448.071,454.476,-129.135,386.74,241.569,-197.352,339.547,201.833,22.0301,371.209,190.695,57.1122,116.947,845.828,109.871,142.639,664.983,-25.3081,136.6,515.494,-185.042,175.741,372.723,-271.145,217.071,385.31,-131.522,192.163,230.427
175,0,41.6039,450.326,1142.13,41.9258,177.864,1130.88,-164.991,353.615,1206.07,-157.956,249.147,1194.23,-23.5162,502.241,858.88,-32.2066,465.001,660.27,-73.5109,447.952,455.41,-138.194,386.636,242.511,-206.481,339.631,203.318,12.6223,371.074,190.479,59.8345,116.881,849.34,115.347,143.46,669.451,-15.9669,137.122,515.724,-170.889,175.491,367.03,-258.43,216.528,374.832,-108.968,191.452,229.044
176,0,39.9719,450.6,1142.7,41.0267,178.099,1133,-166.046,353.735,1207.82,-158.941,249.255,1196.42,-28.5311,501.818,859.464,-39.8113,464.776,661.051,-82.0515,447.838,456.469,-147.187,386.542,243.629,-215.633,339.741,205.009,3.18385,370.951,190.258,62.5919,116.789,853.032,120.154,144.21,673.867,-6.76494,137.534,515.569,-156.119,175.266,360.6,-244.762,216.091,363.382,-85.8943,190.764,227.511
177,0,38.3475,450.806,1143.26,40.1941,178.284,1135.17,-167.048,353.779,1209.6,-159.876,249.293,1198.65,-33.7466,501.373,860.087,-47.3484,464.533,661.943,-90.5323,447.723,457.644,-156.151,386.456,244.934,-224.812,339.869,206.911,-6.28687,370.836,190.034,65.3209,116.682,856.85,124.239,144.885,678.15,2.29433,137.829,515.032,-140.714,175.075,353.566,-230.088,215.757,351.147,-62.3901,190.098,225.94
178,0,36.7436,450.949,1143.79,39.4445,178.425,1137.36,-167.988,353.739,1211.39,-160.747,249.254,1200.9,-39.1022,500.899,860.755,-54.791,464.271,662.932,-98.9341,447.596,458.924,-165.107,386.374,246.396,-234.02,340.011,209.023,-15.7939,370.728,189.808,67.9513,116.57,860.729,127.558,145.48,682.225,11.2065,138.009,514.126,-124.668,174.924,346.076,-214.379,215.516,338.338,-38.543,189.46,224.44
179,0,35.174,451.036,1144.3,38.7941,178.526,1139.54,-168.854,353.606,1213.17,-161.541,249.133,1203.14,-44.5207,500.388,861.467,-62.1107,463.987,664.004,-107.238,447.449,460.295,-174.055,386.295,247.971,-243.252,340.156,211.337,-25.3434,370.622,189.581,70.4124,116.461,864.597,130.086,145.995,686.019,19.9638,138.085,512.882,-107.996,174.82,338.294,-197.64,215.359,325.181,-14.4445,188.861,223.109
180,0,33.6532,451.074,1144.77,38.2585,178.59,1141.68,-169.638,353.374,1214.92,-162.243,248.927,1205.32,-49.9156,499.833,862.222,-69.2766,463.675,665.144,-115.424,447.271,461.742,-182.971,386.221,249.625,-252.501,340.292,213.84,-34.9436,370.514,189.355,72.6393,116.356,868.378,131.812,146.433,689.47,28.5525,138.074,511.341,-90.7386,174.769,330.391,-179.911,215.276,311.918,9.80422,188.315,222.032
181,0,32.1966,451.068,1145.21,37.8524,178.62,1143.74,-170.33,353.038,1216.61,-162.841,248.63,1207.42,-55.1968,499.229,863.01,-76.2553,463.328,666.333,-123.474,447.051,463.252,-191.833,386.153,251.348,-261.753,340.403,216.513,-44.6038,370.4,189.13,74.5763,116.252,871.993,132.747,146.795,692.525,36.9505,137.999,509.558,-72.9672,174.778,322.541,-161.276,215.261,298.79,34.0873,187.843,221.274
182,0,30.8196,451.023,1145.61,37.5892,178.62,1145.71,-170.919,352.593,1218.22,-163.322,248.24,1209.4,-60.2768,498.573,863.82,-83.0105,462.937,667.552,-131.368,446.779,464.807,-200.644,386.086,253.152,-270.994,340.473,219.339,-54.3334,370.275,188.906,76.1805,116.138,875.364,132.921,147.086,695.141,45.1261,137.885,507.592,-54.7872,174.855,314.908,-141.865,215.316,286.033,58.2702,187.463,220.88
183,0,29.5379,450.942,1145.97,37.4807,178.592,1147.56,-171.399,352.038,1219.72,-163.672,247.752,1211.25,-65.0756,497.865,864.634,-89.5032,462.495,668.78,-139.086,446.45,466.391,-209.441,386.003,255.055,-280.207,340.486,222.297,-64.1407,370.135,188.683,77.4222,115.998,878.417,132.38,147.31,697.294,53.0369,137.759,505.506,-36.3412,175.009,307.643,-121.851,215.447,273.868,82.1966,187.198,220.867
184,0,28.3671,450.829,1146.28,37.5369,178.537,1149.27,-171.76,351.37,1221.1,-163.883,247.165,1212.93,-69.5246,497.108,865.431,-95.6921,461.994,669.993,-146.607,446.059,467.986,-218.274,385.876,257.071,-289.377,340.431,225.371,-74.0318,369.976,188.462,78.2849,115.809,881.084,131.191,147.473,698.968,60.6302,137.646,503.361,-17.8076,175.249,300.875,-101.459,215.671,262.491,105.688,187.062,221.226
185,0,27.322,450.684,1146.55,37.7656,178.457,1150.81,-171.997,350.592,1222.33,-163.943,246.477,1214.43,-73.5682,496.307,866.188,-101.533,461.43,671.167,-153.908,445.607,469.574,-227.175,385.681,259.2,-298.491,340.301,228.547,-84.0093,369.795,188.242,78.7644,115.547,883.306,129.435,147.583,700.165,67.8449,137.571,501.212,0.600811,175.587,294.701,-80.9505,216.01,252.061,128.543,187.072,221.915
186,0,26.4166,450.507,1146.77,38.1725,178.351,1152.17,-172.104,349.705,1223.38,-163.845,245.688,1215.71,-77.1651,495.468,866.882,-106.982,460.799,672.277,-160.967,445.098,471.137,-236.14,385.412,261.423,-307.542,340.096,231.818,-94.0718,369.591,188.025,78.8672,115.188,885.036,127.209,147.65,700.899,74.6128,137.558,499.104,18.643,176.034,289.187,-60.6294,216.489,242.7,150.541,187.237,222.864
187,0,25.6638,450.298,1146.93,38.7602,178.219,1153.33,-172.078,348.714,1224.26,-163.585,244.797,1216.78,-80.2866,494.597,867.492,-111.991,460.105,673.294,-167.76,444.54,472.658,-245.113,385.093,263.704,-316.526,339.826,235.182,-104.213,369.364,187.813,78.6099,114.713,886.239,124.616,147.687,701.196,80.8628,137.626,497.069,36.0565,176.601,284.36,-40.8262,217.133,234.479,171.448,187.563,223.979
188,0,25.0744,450.053,1147.04,39.5289,178.058,1154.28,-171.914,347.624,1224.93,-163.159,243.808,1217.61,-82.9155,493.704,867.997,-116.514,459.352,674.191,-174.259,443.949,474.12,-254.007,384.761,266.01,-325.445,339.515,238.642,-114.423,369.114,187.61,78.018,114.115,886.898,121.77,147.71,701.093,86.5238,137.791,495.124,52.5666,177.297,280.211,-21.8895,217.964,227.423,191.02,188.053,225.138
189,0,24.6575,449.768,1147.08,40.4758,177.865,1155,-171.615,346.444,1225.39,-162.566,242.724,1218.21,-85.0431,492.796,868.379,-120.503,458.552,674.939,-180.438,443.341,475.507,-262.743,384.439,268.33,-334.305,339.192,242.207,-124.688,368.846,187.419,77.1267,113.399,887.01,118.784,147.736,700.633,91.5291,138.066,493.272,67.8978,178.129,276.695,-4.17285,218.995,221.51,209.012,188.709,226.21
190,0,24.4194,449.438,1147.05,41.5952,177.637,1155.51,-171.179,345.183,1225.62,-161.81,241.549,1218.55,-86.6662,491.882,868.62,-123.912,457.721,675.511,-186.266,442.737,476.806,-271.288,384.123,270.692,-343.113,338.901,245.888,-134.99,368.564,187.242,75.9811,112.586,886.591,115.768,147.784,699.864,95.8202,138.46,491.505,81.7852,179.1,273.741,11.9804,220.226,216.673,225.191,189.53,227.057
191,0,24.364,449.056,1146.95,42.8782,177.367,1155.78,-170.611,343.852,1225.62,-160.897,240.29,1218.66,-87.7842,490.971,868.705,-126.694,456.879,675.881,-191.71,442.162,478.004,-279.658,383.796,273.141,-351.874,338.688,249.701,-145.314,368.272,187.081,74.6375,111.717,885.675,112.829,147.874,698.836,99.3504,138.977,489.803,93.9874,180.207,271.256,26.2525,221.643,212.812,239.34,190.512,227.547
192,0,24.492,448.617,1146.77,44.3132,177.051,1155.82,-169.917,342.461,1225.39,-159.834,238.957,1218.52,-88.3973,490.07,868.618,-128.804,456.052,676.022,-196.734,441.641,479.092,-287.878,383.464,275.716,-360.585,338.604,253.666,-155.643,367.974,186.933,73.1642,110.846,884.315,110.06,148.022,697.599,102.088,139.617,488.14,104.297,181.441,269.137,38.3667,223.216,209.798,251.277,191.652,227.569
193,0,24.8009,448.114,1146.51,45.8857,176.683,1155.64,-169.103,341.025,1224.93,-158.634,237.558,1218.15,-88.504,489.189,868.345,-130.2,455.27,675.914,-201.298,441.199,480.062,-295.926,383.169,278.428,-369.231,338.696,257.807,-165.964,367.674,186.793,71.6412,110.038,882.576,107.541,148.242,696.198,104.018,140.374,486.488,112.554,182.789,267.278,48.1023,224.902,207.492,260.856,192.938,227.043
194,0,25.2852,447.54,1146.15,47.5785,176.255,1155.25,-168.178,339.556,1224.23,-157.312,236.104,1217.56,-88.1008,488.338,867.871,-130.841,454.564,675.537,-205.357,440.862,480.91,-303.723,382.98,281.263,-377.779,339.004,262.15,-176.27,367.373,186.652,70.1592,109.358,880.538,105.335,148.539,694.676,105.144,141.236,484.822,118.651,184.228,265.581,55.3071,226.645,205.75,267.987,194.354,225.926
195,0,25.9361,446.888,1145.7,49.3721,175.762,1154.64,-167.154,338.067,1223.31,-155.885,234.61,1216.76,-87.1817,487.525,867.183,-130.689,453.969,674.879,-208.86,440.653,481.636,-311.172,382.978,284.195,-386.167,339.551,266.73,-186.559,367.07,186.497,68.815,108.868,878.291,103.485,148.911,693.067,105.489,142.184,483.119,122.542,185.732,263.966,59.9069,228.383,204.437,272.636,195.876,224.224
196,0,26.7415,446.154,1145.16,51.2451,175.197,1153.85,-166.043,336.573,1222.18,-154.372,233.086,1215.77,-85.7391,486.763,866.27,-129.712,453.519,673.93,-211.75,440.591,482.242,-318.218,383.234,287.218,-394.303,340.342,271.585,-196.836,366.76,186.315,67.7067,108.609,875.926,102.015,149.346,691.4,105.092,143.192,481.367,124.243,187.266,262.373,61.911,230.05,203.434,274.832,197.471,221.988
197,0,27.6866,445.335,1144.52,53.1743,174.555,1152.88,-164.861,335.086,1220.85,-152.794,231.549,1214.61,-83.7644,486.063,865.127,-127.88,453.247,672.69,-213.968,440.694,482.734,-324.886,383.79,290.354,-402.059,341.36,276.76,-207.112,366.435,186.093,66.9252,108.603,873.534,100.927,149.824,689.698,104.01,144.231,479.561,123.835,188.795,260.766,61.4128,231.585,202.643,274.672,199.094,219.312
198,0,28.754,444.426,1143.79,55.1351,173.832,1151.74,-163.622,333.62,1219.33,-151.175,230.012,1213.3,-81.25,485.437,863.753,-125.172,453.185,671.164,-215.448,440.972,483.122,-331.243,384.649,293.644,-409.274,342.564,282.303,-217.401,366.084,185.823,66.5447,108.836,871.197,100.204,150.312,687.975,102.308,145.264,477.705,121.456,190.277,259.134,58.5845,232.935,201.992,272.314,200.696,216.32
199,0,29.9241,443.429,1142.96,57.1024,173.025,1150.47,-162.342,332.186,1217.65,-149.537,228.489,1211.87,-78.1913,484.9,862.157,-121.573,453.357,669.368,-216.124,441.435,483.419,-337.321,385.765,297.12,-415.756,343.89,288.265,-227.715,365.697,185.507,66.6138,109.267,868.984,99.8084,150.772,686.242,100.063,146.25,475.813,117.295,191.672,257.486,53.6671,234.058,201.432,267.972,202.222,213.161
200,0,31.1756,442.343,1142.05,59.0507,172.132,1149.09,-161.04,330.794,1215.83,-147.904,226.994,1210.34,-74.5878,484.467,860.358,-117.077,453.784,667.322,-215.932,442.085,483.643,-343.027,387.057,300.784,-421.293,345.258,294.692,-238.058,365.262,185.161,67.1458,109.825,866.948,99.6878,151.16,684.505,97.3521,147.149,473.901,111.58,192.941,255.846,46.9547,234.929,200.935,261.906,203.618,209.986
201,0,32.4861,441.174,1141.06,60.9547,171.155,1147.6,-159.731,329.454,1213.9,-146.3,225.541,1208.74,-70.4461,484.151,858.384,-111.69,454.478,665.059,-214.813,442.922,483.813,-348.098,388.425,304.603,-425.667,346.578,301.626,-248.415,364.772,184.817,68.1133,110.417,865.118,99.7738,151.431,682.766,94.2505,147.921,471.992,104.564,194.049,254.249,38.7754,235.538,200.489,254.403,204.832,206.938
202,0,33.8325,439.925,1140,62.7899,170.094,1146.04,-158.434,328.174,1211.87,-144.746,224.141,1207.08,-65.7806,483.966,856.274,-105.429,455.444,662.619,-212.719,443.941,483.954,-352.119,389.753,308.54,-428.674,347.76,309.092,-258.744,364.226,184.53,69.4451,110.939,863.503,99.986,151.542,681.026,90.8264,148.528,470.106,96.5107,194.967,252.731,29.4701,235.894,200.092,245.766,205.823,204.137
203,0,35.1917,438.606,1138.88,64.533,168.955,1144.43,-157.165,326.961,1209.78,-143.263,222.806,1205.41,-60.6159,483.924,854.076,-98.3246,456.676,660.049,-209.615,445.134,484.09,-354.638,390.916,312.586,-430.141,348.721,317.095,-268.966,363.632,184.374,71.0283,111.287,862.089,100.235,151.454,679.284,87.1365,148.941,468.263,87.6819,195.678,251.325,19.3713,236.017,199.746,236.291,206.563,201.672
204,0,36.5413,437.225,1137.71,66.1623,167.745,1142.79,-155.939,325.818,1207.66,-141.871,221.544,1203.75,-54.9877,484.032,851.844,-90.4207,458.16,657.404,-205.485,446.49,484.25,-355.333,391.814,316.79,-429.948,349.396,325.615,-278.95,363.01,184.439,72.7157,111.371,860.844,100.425,151.138,677.537,83.2231,149.138,466.476,78.3204,196.17,250.056,8.78461,235.943,199.457,226.255,207.04,199.592
205,0,37.86,435.795,1136.52,67.6585,166.471,1141.14,-154.773,324.75,1205.53,-140.586,220.362,1202.12,-48.9434,484.293,849.638,-81.7745,459.873,654.745,-200.334,447.992,484.463,-354.137,392.424,321.243,-428.044,349.74,334.597,-288.514,362.393,184.829,74.3368,111.119,859.721,100.46,150.577,675.785,79.1125,149.109,464.755,68.6415,196.446,248.938,-2.02658,235.711,199.226,215.902,207.257,197.912
206,0,39.1279,434.327,1135.32,69.0045,165.144,1139.5,-153.678,323.759,1203.43,-139.421,219.267,1200.54,-42.5431,484.704,847.514,-72.4562,461.783,652.137,-194.19,449.623,484.759,-351.241,392.831,326.015,-424.456,349.739,343.954,-297.418,361.825,185.649,75.7126,110.492,858.666,100.244,149.764,674.025,74.8156,148.855,463.104,58.8247,196.518,247.973,-12.8504,235.368,199.053,205.434,207.234,196.614
207,0,40.3275,432.837,1134.13,70.1864,163.776,1137.89,-152.667,322.844,1201.38,-138.388,218.262,1199.05,-35.8591,485.256,845.529,-62.5466,463.852,649.648,-187.104,451.359,485.165,-346.982,393.21,331.103,-419.291,349.407,353.562,-305.368,361.365,186.991,76.6716,109.48,857.627,99.6882,148.708,672.259,70.3292,148.388,461.524,49.0099,196.407,247.153,-23.5309,234.958,198.934,195.004,207.004,195.653
208,0,41.4435,431.339,1132.96,71.193,162.378,1136.33,-151.749,322.006,1199.43,-137.494,217.35,1197.65,-28.9754,485.935,843.732,-52.1356,466.035,647.347,-179.146,453.173,485.711,-341.735,393.75,336.444,-412.732,348.784,363.26,-312.03,361.079,188.927,77.0657,108.106,856.556,98.7143,147.432,670.489,65.6399,147.732,460.011,39.2964,196.141,246.461,-33.9667,234.523,198.862,184.719,206.61,194.967
209,0,42.4633,429.849,1131.85,72.0166,160.965,1134.83,-150.933,321.244,1197.58,-136.745,216.53,1196.38,-21.9855,486.72,842.166,-41.3193,468.285,645.3,-170.404,455.035,486.418,-335.838,394.576,341.98,-405.019,347.936,372.859,-317.048,361.037,191.488,76.7827,106.42,855.421,97.2577,145.968,668.721,60.7278,146.919,458.563,29.7456,195.754,245.877,-44.1055,234.099,198.829,174.645,206.097,194.488
210,0,43.3774,428.381,1130.8,72.653,159.551,1133.41,-150.223,320.555,1195.89,-136.141,215.802,1195.25,-14.9903,487.587,840.861,-30.1965,470.55,643.572,-160.978,456.91,487.305,-329.528,395.673,347.692,-396.431,346.943,382.143,-320.063,361.303,194.663,75.756,104.492,854.205,95.2707,144.359,666.964,55.571,145.991,457.178,20.386,195.284,245.379,-53.9359,233.713,198.829,164.806,205.513,194.15
211,0,44.1791,426.951,1129.85,73.101,158.15,1132.08,-149.623,319.938,1194.36,-135.682,215.164,1194.27,-8.09401,488.507,839.84,-18.8661,472.782,642.221,-150.973,458.761,488.384,-322.867,396.881,353.566,-387.255,345.896,390.882,-320.745,361.932,198.386,73.9679,102.406,852.911,92.7244,142.656,665.231,50.1495,144.991,455.857,11.2193,194.765,244.948,-63.4771,233.382,198.856,155.199,204.902,193.893
212,0,44.8647,425.574,1129,73.3633,156.777,1130.85,-149.134,319.39,1193.04,-135.362,214.613,1193.47,-1.40002,489.452,839.115,-7.42452,474.931,641.3,-140.494,460.548,489.658,-315.763,397.967,359.544,-377.761,344.89,398.839,-318.822,362.964,202.544,71.4483,100.251,851.559,89.6092,140.912,663.539,44.4489,143.964,454.606,2.22771,194.23,244.568,-72.7687,233.117,198.908,145.801,204.301,193.67
213,0,45.4335,424.263,1128.28,73.4455,155.446,1129.73,-148.754,318.909,1191.93,-135.175,214.144,1192.85,4.99489,490.395,838.688,4.03713,476.953,640.85,-129.642,462.231,491.12,-308.084,398.747,365.524,-368.174,344.012,405.785,-314.1,364.41,206.979,68.2691,98.1147,850.182,85.9348,139.182,661.907,38.4625,142.955,453.432,-6.61898,193.709,244.23,-81.8609,232.92,198.985,136.574,203.737,193.447
214,0,45.8878,423.03,1127.7,73.3563,154.169,1128.74,-148.481,318.492,1191.07,-135.111,213.753,1192.43,11.006,491.308,838.554,15.4339,478.805,640.904,-118.51,463.774,492.751,-299.798,399.186,371.378,-358.653,343.338,411.508,-306.484,366.26,211.503,64.5343,96.076,848.823,81.7277,137.52,660.36,32.1925,142.004,452.349,-15.357,193.223,243.931,-90.8069,232.784,199.095,127.474,203.23,193.207
215,0,46.2325,421.887,1127.29,73.1074,152.958,1127.88,-148.308,318.137,1190.46,-135.159,213.437,1192.22,16.5663,492.167,838.701,26.6878,480.452,641.482,-107.175,465.142,494.525,-290.936,399.389,376.933,-349.281,342.921,415.827,-295.989,368.475,215.914,60.3686,94.204,847.529,77.0293,135.975,658.919,25.6501,141.147,451.372,-24.0234,192.788,243.676,-99.657,232.701,199.246,118.461,202.789,192.942
216,0,46.4749,420.843,1127.05,72.713,151.826,1127.16,-148.227,317.843,1190.13,-135.305,213.189,1192.21,21.6312,492.952,839.115,37.7275,481.864,642.591,-95.7043,466.308,496.401,-281.441,399.51,381.903,-340.051,342.787,418.603,-282.736,370.993,220.015,55.9054,92.5538,846.346,71.8918,134.587,657.61,18.8545,140.411,450.52,-32.6517,192.416,243.474,-108.454,232.659,199.453,109.494,202.417,192.654
217,0,46.6248,419.908,1126.99,72.1895,150.782,1126.58,-148.229,317.608,1190.08,-135.533,213.007,1192.41,26.1813,493.644,839.781,48.4873,483.017,644.227,-84.1503,467.253,498.333,-271.095,399.664,385.866,-330.881,342.929,419.742,-266.944,373.735,223.626,51.2754,91.1666,845.311,66.3751,133.391,656.454,11.8312,139.816,449.81,-41.2698,192.108,243.341,-117.233,232.644,199.732,100.542,202.111,192.35
218,0,46.6938,419.087,1127.13,71.5553,149.835,1126.15,-148.303,317.432,1190.31,-135.828,212.886,1192.84,30.2241,494.23,840.681,58.9058,483.893,646.369,-72.554,467.965,500.264,-259.663,399.914,388.398,-321.615,343.306,419.204,-248.902,376.616,226.606,46.5976,90.0694,844.455,60.5424,132.41,655.472,4.61025,139.372,449.261,-49.8981,191.865,243.294,-126.019,232.643,200.105,91.5812,201.864,192.041
219,0,46.6956,418.386,1127.46,70.8303,148.993,1125.88,-148.435,317.312,1190.83,-136.172,212.822,1193.47,33.7919,494.701,841.804,68.9238,484.48,648.985,-60.9465,468.446,502.137,-247.116,400.286,389.275,-312.046,343.843,417,-228.949,379.55,228.855,41.9716,89.2761,843.797,54.4571,131.66,654.681,-2.7765,139.083,448.891,-58.5498,191.681,243.354,-134.826,232.647,200.592,82.5934,201.668,191.738
220,0,46.6452,417.81,1127.99,70.0357,148.261,1125.76,-148.61,317.251,1191.64,-136.547,212.814,1194.32,36.9378,495.049,843.138,78.4832,484.775,652.028,-49.3519,468.704,503.892,-233.696,400.793,388.557,-301.937,344.441,413.187,-207.437,382.46,230.323,37.4742,88.7883,843.348,48.1796,131.142,654.095,-10.2969,138.945,448.713,-67.2309,191.549,243.54,-143.665,232.646,201.22,73.5681,201.512,191.449
221,0,46.5588,417.36,1128.72,69.1932,147.646,1125.8,-148.813,317.247,1192.71,-136.935,212.859,1195.37,39.7297,495.273,844.677,87.5255,484.779,655.44,-37.7901,468.759,505.471,-219.751,401.437,386.485,-291.044,344.986,407.86,-184.706,385.284,231.012,33.1567,88.5968,843.108,41.765,130.853,653.723,-17.9205,138.947,448.742,-75.9417,191.459,243.873,-152.536,232.634,202.011,64.4995,201.387,191.18
222,0,46.4539,417.039,1129.64,68.3252,147.151,1126,-149.027,317.302,1194.05,-137.317,212.957,1196.61,42.242,495.376,846.417,95.9912,484.5,659.152,-26.2787,468.636,506.821,-205.51,402.21,383.277,-279.142,345.371,401.136,-161.057,387.981,230.964,29.0454,88.6831,843.071,35.2619,130.779,653.572,-25.6193,139.072,448.985,-84.6784,191.401,244.37,-161.439,232.608,202.99,55.3847,201.288,190.932
223,0,46.3486,416.846,1130.74,67.4539,146.778,1126.34,-149.236,317.416,1195.62,-137.676,213.108,1198.04,44.5474,495.364,848.356,103.821,483.952,663.087,-14.836,468.368,507.898,-190.947,403.105,379.007,-266.045,345.514,393.147,-136.736,390.525,230.262,25.1445,89.0208,843.229,28.7113,130.899,653.644,-33.3687,139.302,449.449,-93.4339,191.365,245.047,-170.366,232.566,204.179,46.2229,201.206,190.706
224,0,46.2613,416.78,1132.02,66.6016,146.529,1126.84,-149.42,317.592,1197.41,-137.993,213.312,1199.63,46.7094,495.251,850.489,110.955,483.155,667.161,-3.48167,467.989,508.67,-175.841,404.121,373.613,-251.629,345.38,384.018,-111.924,392.907,229.02,21.4387,89.5782,843.568,22.1464,131.188,653.938,-41.1475,139.614,450.137,-102.2,191.341,245.916,-179.312,232.506,205.6,37.0133,201.137,190.498
225,0,46.2112,416.838,1133.45,65.7895,146.405,1127.48,-149.562,317.833,1199.38,-138.253,213.573,1201.36,48.7752,495.054,852.811,117.338,482.135,671.285,7.76104,467.534,509.115,-159.974,405.244,367.052,-235.839,344.997,373.863,-86.7443,395.129,227.373,17.8987,90.3202,844.076,15.5939,131.618,654.449,-48.937,139.985,451.048,-110.967,191.321,246.986,-188.267,232.43,207.267,27.7548,201.077,190.304
226,0,46.2169,417.017,1135.02,65.0382,146.404,1128.24,-149.645,318.14,1201.49,-138.439,213.893,1203.22,50.7725,494.794,855.308,122.92,480.924,675.371,18.8646,467.038,509.224,-143.319,406.438,359.453,-218.697,344.461,362.778,-61.2647,397.195,225.471,14.486,91.2106,844.74,9.07408,132.157,655.17,-56.7208,140.395,452.175,-119.727,191.298,248.26,-197.222,232.336,209.194,18.445,201.022,190.121
227,0,46.2972,417.313,1136.71,64.367,146.525,1129.13,-149.651,318.519,1203.72,-138.536,214.276,1205.17,52.7078,494.497,857.959,127.659,479.557,679.33,29.7964,466.534,509.005,-126.037,407.647,351.125,-200.297,343.935,350.848,-35.5197,399.11,223.471,11.1588,92.2148,845.549,2.60347,132.776,656.089,-64.4833,140.823,453.511,-128.473,191.264,249.739,-206.17,232.224,211.386,9.08037,200.971,189.944
228,0,46.4703,417.718,1138.48,63.7935,146.766,1130.11,-149.563,318.972,1206.02,-138.532,214.727,1207.19,54.5683,494.194,860.73,131.53,478.075,683.08,40.518,466.049,508.477,-108.304,408.812,342.399,-180.795,343.625,338.156,-9.52755,400.872,221.533,7.87748,93.301,846.492,-3.80385,133.449,657.193,-72.2086,141.251,455.04,-137.197,191.214,251.415,-215.102,232.094,213.845,-0.343608,200.92,189.772
229,0,46.7535,418.227,1140.32,63.3338,147.123,1131.18,-149.367,319.505,1208.34,-138.415,215.251,1209.24,56.3257,493.916,863.579,134.519,476.52,686.545,50.9848,465.606,507.67,-90.1569,409.912,333.475,-160.385,343.751,324.802,16.6885,402.472,219.807,4.60958,94.4428,847.556,-10.1337,134.151,658.462,-79.8794,141.666,456.745,-145.895,191.143,253.281,-224.011,231.941,216.564,-9.83184,200.867,189.605
230,0,47.1632,418.833,1142.18,63.0019,147.59,1132.31,-149.049,320.123,1210.65,-138.176,215.854,1211.29,57.9424,493.697,866.451,136.637,474.939,689.659,61.1463,465.225,506.625,-71.4955,410.971,324.406,-139.281,344.501,310.93,43.081,403.896,218.434,1.33448,95.6192,848.73,-16.3696,134.863,659.873,-87.4764,142.058,458.602,-154.563,191.048,255.321,-232.89,231.761,219.53,-19.3889,200.809,189.443
231,0,47.7142,419.527,1144.05,62.8097,148.163,1133.48,-148.597,320.832,1212.9,-137.808,216.541,1213.31,59.3785,493.568,869.282,137.913,473.374,692.369,70.9463,464.921,505.389,-52.2102,412.052,315.208,-117.699,345.998,296.735,69.5623,405.128,217.528,-1.9535,96.8154,849.996,-22.4904,135.572,661.401,-94.977,142.419,460.586,-163.197,190.924,257.517,-241.734,231.549,222.725,-29.0184,200.744,189.29
232,0,48.42,420.3,1145.88,62.7667,148.836,1134.66,-148.001,321.636,1215.04,-137.304,217.318,1215.26,60.5986,493.562,872,138.402,471.87,694.637,80.3244,464.702,504.011,-32.2745,413.216,305.977,-95.8441,348.264,282.481,95.993,406.155,217.174,-5.24313,98.0226,851.337,-28.468,136.268,663.011,-102.355,142.745,462.664,-171.794,190.769,259.847,-250.541,231.298,226.125,-38.7217,200.671,189.147
233,0,49.2916,421.144,1147.65,62.8798,149.601,1135.82,-147.255,322.541,1217.03,-136.663,218.191,1217.09,61.5793,493.704,874.531,138.18,470.466,696.437,89.2174,464.575,502.539,-11.7573,414.497,296.94,-73.9106,351.214,268.485,122.176,406.977,217.417,-8.50573,99.2372,852.727,-34.2664,136.949,664.666,-109.581,143.037,464.802,-180.35,190.58,262.289,-259.307,230.998,229.701,-48.4981,200.588,189.019
234,0,50.338,422.05,1149.31,63.1533,150.453,1136.94,-146.353,323.552,1218.83,-135.884,219.163,1218.78,62.3135,494.017,876.801,137.345,469.197,697.76,97.5611,464.542,501.016,9.19171,415.874,288.423,-52.0951,354.66,255.101,147.857,407.607,218.251,-11.6963,100.46,854.137,-39.8398,137.615,666.324,-116.621,143.294,466.964,-188.863,190.353,264.817,-268.033,230.641,233.426,-58.3438,200.495,188.906
235,0,51.5655,423.009,1150.85,63.5888,151.383,1137.98,-145.295,324.672,1220.42,-134.969,220.239,1220.27,62.8152,494.512,878.739,136.015,468.092,698.612,105.294,464.601,499.474,30.323,417.279,280.789,-30.6133,358.345,242.682,172.728,408.076,219.617,-14.7557,101.693,855.53,-45.1331,138.272,667.938,-123.438,143.52,469.111,-197.326,190.086,267.408,-276.717,230.216,237.267,-68.2525,200.392,188.808
236,0,52.9773,424.012,1152.22,64.1851,152.385,1138.91,-144.081,325.905,1221.74,-133.923,221.421,1221.55,63.1205,495.193,880.285,134.319,467.171,699.01,112.357,464.746,497.938,51.2433,418.596,274.356,-9.71972,361.981,231.542,196.441,408.433,221.399,-17.6144,102.944,856.863,-50.0815,138.926,669.455,-129.993,143.717,471.202,-205.732,189.777,270.038,-285.36,229.714,241.198,-78.2153,200.282,188.723
237,0,54.5736,425.052,1153.4,64.9382,153.451,1139.71,-142.718,327.251,1222.79,-132.753,222.709,1222.56,63.2875,496.048,881.392,132.397,466.448,698.986,118.701,464.97,496.416,71.4108,419.678,269.312,10.2802,365.291,221.919,218.625,408.737,223.427,-20.1962,104.217,858.087,-54.6122,139.584,670.821,-136.244,143.89,473.2,-214.071,189.423,272.688,-293.961,229.124,245.197,-88.2218,200.166,188.645
238,0,56.3509,426.122,1154.36,65.8414,154.573,1140.35,-141.212,328.71,1223.53,-131.467,224.103,1223.29,63.3937,497.055,882.034,130.39,465.929,698.577,124.284,465.26,494.906,90.204,420.374,265.658,29.0293,368.05,213.952,238.903,409.051,225.492,-22.4234,105.518,859.148,-58.6461,140.255,671.979,-142.146,144.041,475.067,-222.328,189.022,275.345,-302.515,228.44,249.249,-98.261,200.047,188.568
239,0,58.3023,427.217,1155.1,66.8853,155.746,1140.79,-139.574,330.279,1223.96,-130.079,225.6,1223.7,63.5319,498.176,882.201,128.435,465.61,697.83,129.076,465.601,493.396,107.04,420.585,263.222,46.1326,370.109,207.665,256.921,409.432,227.36,-24.22,106.853,859.989,-62.1001,140.943,672.872,-147.653,144.173,476.768,-230.485,188.574,278.001,-311.013,227.657,253.349,-108.322,199.928,188.481
240,0,60.417,428.331,1155.59,68.0582,156.962,1141.02,-137.819,331.952,1224.07,-128.6,227.194,1223.79,63.8036,499.363,881.911,126.654,465.483,696.794,133.062,465.975,491.865,121.486,420.325,261.714,61.184,371.405,202.975,272.367,409.921,228.796,-25.5165,108.224,860.55,-64.8899,141.651,673.442,-152.718,144.288,478.275,-238.515,188.078,280.654,-319.437,226.774,257.506,-118.398,199.814,188.374
241,0,62.6806,429.461,1155.82,69.3459,158.216,1141.01,-135.963,333.721,1223.85,-127.048,228.88,1223.52,64.3117,500.562,881.203,125.154,465.534,695.52,136.237,466.363,490.286,133.321,419.751,260.793,73.802,371.96,199.707,284.997,410.533,229.593,-26.2516,109.632,860.774,-66.9338,142.379,673.639,-157.295,144.388,479.562,-246.386,187.537,283.312,-327.757,225.796,261.74,-128.481,199.705,188.237
242,0,65.0754,430.605,1155.8,70.7326,159.502,1140.75,-134.026,335.577,1223.32,-125.437,230.647,1222.9,65.1511,501.715,880.138,124.017,465.747,694.055,138.616,466.747,488.637,142.508,419.136,260.091,83.6692,371.862,197.625,294.655,411.254,229.593,-26.3748,111.078,860.609,-68.1554,143.123,673.417,-161.336,144.474,480.615,-254.056,186.954,285.993,-335.93,224.733,266.088,-138.569,199.606,188.063
243,0,67.5798,431.763,1155.52,72.2006,160.815,1140.23,-132.027,337.507,1222.48,-123.787,232.485,1221.93,66.4001,502.771,878.798,123.297,466.103,692.445,140.223,467.108,486.897,149.07,418.76,259.238,90.5682,371.246,196.461,301.284,412.04,228.712,-25.8464,112.557,860.011,-68.4877,143.875,672.738,-164.793,144.545,481.424,-261.474,186.335,288.722,-343.896,223.606,270.6,-148.665,199.515,187.849
244,0,70.1697,432.934,1154.99,73.7312,162.152,1139.44,-129.989,339.495,1221.35,-122.115,234.381,1220.61,68.1102,503.691,877.274,123.018,466.587,690.73,141.099,467.432,485.052,152.908,418.757,257.913,94.4084,370.267,195.947,304.937,412.825,226.948,-24.6378,114.064,858.948,-67.8758,144.627,671.578,-167.62,144.605,481.992,-268.581,185.688,291.531,-351.575,222.441,275.338,-158.769,199.433,187.597
245,0,72.8181,434.121,1154.23,75.3047,163.508,1138.4,-127.937,341.525,1219.96,-120.441,236.321,1218.96,70.2979,504.454,875.665,123.173,467.184,688.942,141.296,467.71,483.1,153.724,418.999,255.933,95.2402,369.083,195.841,305.77,413.533,224.387,-22.7309,115.592,857.406,-66.2804,145.365,669.927,-169.773,144.652,482.329,-275.308,185.025,294.459,-358.869,221.271,280.372,-168.885,199.358,187.318
246,0,75.4961,435.324,1153.25,76.9011,164.88,1137.09,-125.893,343.578,1218.34,-118.782,238.289,1216.99,72.9382,505.064,874.062,123.726,467.882,687.109,140.871,467.938,481.049,151.187,419.114,253.346,93.2525,367.834,195.947,304.034,414.083,221.188,-20.1172,117.129,855.39,-63.6796,146.078,667.792,-171.21,144.687,482.459,-281.578,184.356,297.551,-365.665,220.139,285.777,-179.013,199.288,187.036
247,0,78.1732,436.546,1152.07,78.5005,166.264,1135.54,-123.883,345.634,1216.52,-117.156,240.268,1214.75,75.9606,505.549,872.541,124.615,468.676,685.25,139.892,468.119,478.916,145.34,418.68,250.448,88.756,366.631,196.123,300.054,414.415,217.562,-16.7977,118.663,852.926,-60.0716,146.755,665.195,-171.894,144.712,482.412,-287.31,183.698,300.85,-371.833,219.088,291.623,-189.143,199.218,186.783
248,0,80.8184,437.791,1150.73,80.0835,167.659,1133.77,-121.928,347.673,1214.54,-115.581,242.243,1212.25,79.2496,505.961,871.159,125.757,469.562,683.38,138.422,468.263,476.727,136.951,417.501,247.683,82.153,365.554,196.278,294.206,414.488,213.747,-12.7836,120.178,850.066,-55.475,147.385,662.181,-171.792,144.726,482.231,-292.419,183.063,304.399,-377.24,218.162,297.972,-199.254,199.146,186.601
249,0,83.4004,439.062,1149.26,81.6313,169.061,1131.8,-120.052,349.677,1212.43,-114.072,244.196,1209.55,82.6495,506.37,869.938,127.051,470.541,681.509,136.525,468.387,474.514,127.409,415.76,245.464,73.8993,364.654,196.372,286.885,414.298,209.981,-8.09755,121.661,846.883,-49.9294,147.962,658.811,-170.878,144.729,481.964,-296.819,182.467,308.235,-381.752,217.404,304.869,-209.304,199.069,186.545
250,0,85.8889,440.359,1147.67,83.1265,170.467,1129.67,-118.275,351.624,1210.24,-112.644,246.112,1206.68,85.9739,506.854,868.873,128.387,471.616,679.64,134.254,468.513,472.31,118.06,413.924,244.001,64.4628,363.952,196.4,278.481,413.87,206.467,-2.77586,123.093,843.467,-43.4947,148.481,655.163,-169.136,144.722,481.666,-300.431,181.922,312.385,-385.245,216.849,312.333,-219.226,198.983,186.676
251,0,88.2549,441.687,1146.01,84.5532,171.875,1127.41,-116.615,353.499,1208.01,-111.307,247.974,1203.7,89.0199,507.488,867.928,129.652,472.79,677.778,131.654,468.663,470.146,109.51,412.461,243.255,54.285,363.45,196.382,269.352,413.259,203.363,3.12882,124.462,839.926,-36.2489,148.944,651.329,-166.556,144.703,481.397,-303.179,181.439,316.864,-387.612,216.518,320.354,-228.926,198.888,187.058
252,0,90.4716,443.044,1144.31,85.8971,173.281,1125.07,-115.089,355.286,1205.78,-110.074,249.77,1200.66,91.5853,508.338,867.047,130.734,474.063,675.924,128.753,468.861,468.049,101.509,411.606,243.01,43.7503,363.133,196.349,259.803,412.537,200.764,9.54484,125.754,836.375,-28.2853,149.353,647.411,-163.14,144.671,481.215,-305,181.025,321.671,-388.775,216.422,328.889,-238.273,198.784,187.754
253,0,92.515,444.432,1142.61,87.1458,174.681,1122.68,-113.71,356.97,1203.59,-108.951,251.487,1197.61,93.4873,509.446,866.159,131.531,475.436,674.08,125.566,469.128,466.04,93.4738,411.324,243.006,33.1652,362.975,196.333,250.079,411.781,198.707,16.3798,126.957,832.927,-19.7091,149.717,643.517,-158.903,144.626,481.178,-305.844,180.685,326.79,-388.689,216.554,337.856,-247.105,198.675,188.822
254,0,94.3643,445.848,1140.93,88.2887,176.072,1120.29,-112.489,358.543,1201.47,-107.946,253.115,1194.6,94.5803,510.828,865.197,131.949,476.902,672.249,122.097,469.478,464.132,85.0685,411.433,243.036,22.7491,362.946,196.361,240.358,411.066,197.171,23.5201,128.066,829.69,-10.6324,150.045,639.757,-153.867,144.569,481.336,-305.674,180.419,332.185,-387.346,216.891,347.144,-255.225,198.565,190.307
255,0,96.0028,447.29,1139.3,89.3174,177.45,1117.96,-111.432,359.997,1199.47,-107.062,254.646,1191.69,94.7711,512.471,864.106,131.913,478.449,670.435,118.337,469.921,462.335,76.3627,411.759,242.976,12.6365,363.013,196.452,230.756,410.449,196.095,30.8332,129.076,826.758,-1.16934,150.35,636.235,-148.068,144.499,481.733,-304.472,180.224,337.802,-384.781,217.396,356.609,-262.41,198.462,192.236
256,0,97.4175,448.752,1137.76,90.2252,178.809,1115.72,-110.546,361.328,1197.61,-106.303,256.075,1188.93,94.0283,514.334,862.853,131.361,480.061,668.648,114.27,470.456,460.651,67.6131,412.198,242.784,2.88649,363.14,196.613,221.335,409.967,195.39,38.1713,129.988,824.201,8.56838,150.645,633.048,-141.548,144.422,482.404,-302.232,180.097,343.573,-381.062,218.023,366.084,-268.417,198.372,194.615
257,0,98.5998,450.229,1136.33,91.0074,180.144,1113.63,-109.83,362.535,1195.92,-105.669,257.399,1186.36,92.3853,516.354,861.438,130.253,481.715,666.897,109.879,471.075,459.081,59.0137,412.702,242.482,-6.50107,363.295,196.846,212.115,409.635,194.959,45.3787,130.807,822.07,18.4764,150.944,630.284,-134.359,144.344,483.369,-298.964,180.029,349.413,-376.29,218.715,375.383,-272.996,198.304,197.425
258,0,99.5453,451.712,1135.03,91.661,181.449,1111.73,-109.283,363.62,1194.43,-105.161,258.616,1184.02,89.9365,518.453,859.892,128.565,483.384,665.199,105.148,471.761,457.626,50.6034,413.229,242.124,-15.5678,363.449,197.144,203.084,409.446,194.705,52.3003,131.539,820.39,28.461,151.26,628.013,-126.562,144.273,484.638,-294.694,180.014,355.224,-370.588,219.417,384.316,-275.904,198.266,200.624
259,0,100.254,453.192,1133.88,92.1848,182.717,1110.05,-108.902,364.587,1193.16,-104.775,259.729,1181.96,86.8262,520.549,858.272,126.289,485.036,663.57,100.063,472.492,456.286,42.3091,413.715,241.757,-24.3792,363.58,197.499,194.21,409.376,194.547,58.7916,132.194,819.164,38.4421,151.607,626.293,-118.22,144.221,486.207,-289.454,180.043,360.9,-364.095,220.072,392.687,-276.917,198.266,204.14
260,0,100.729,454.659,1132.9,92.5791,183.942,1108.64,-108.68,365.444,1192.13,-104.51,260.741,1180.21,83.2326,522.562,856.659,123.433,486.638,662.032,94.62,473.241,455.068,34.0341,414.082,241.405,-33.0092,363.671,197.906,185.454,409.395,194.422,64.7294,132.784,818.377,48.3537,151.994,625.165,-109.401,144.203,488.058,-283.291,180.11,366.329,-356.949,220.635,400.311,-275.847,198.309,207.882
261,0,100.979,456.099,1132.11,92.8457,185.116,1107.52,-108.607,366.2,1191.35,-104.362,261.656,1178.79,79.3482,524.423,855.144,120.019,488.158,660.606,88.8218,473.981,453.98,25.7255,414.277,241.082,-41.5288,363.714,198.361,176.774,409.465,194.286,70.0208,133.32,818.003,58.1443,152.432,624.656,-100.175,144.232,490.161,-276.256,180.208,371.394,-349.28,221.07,407.011,-272.554,198.399,211.741
262,0,101.014,457.5,1131.51,92.9878,186.232,1106.73,-108.674,366.864,1190.84,-104.325,262.481,1177.73,75.3591,526.075,853.813,116.077,489.564,659.317,82.6797,474.685,453.032,17.3914,414.307,240.812,-49.998,363.712,198.862,168.129,409.553,194.117,74.6112,133.814,818.008,67.7748,152.928,624.777,-90.6123,144.325,492.475,-268.404,180.332,375.979,-341.201,221.356,412.631,-266.957,198.534,215.597
263,0,100.848,458.85,1131.12,93.0103,187.281,1106.28,-108.868,367.447,1190.61,-104.395,263.223,1177.04,71.427,527.483,852.742,111.648,490.828,658.186,76.213,475.329,452.239,9.07075,414.237,240.633,-58.4624,363.67,199.417,159.487,409.631,193.91,78.488,134.273,818.36,77.216,153.488,625.529,-80.7803,144.495,494.948,-259.793,180.478,379.971,-332.802,221.488,417.031,-259.035,198.712,219.325
264,0,100.496,460.134,1130.93,92.9191,188.258,1106.18,-109.176,367.96,1190.65,-104.565,263.889,1176.74,67.6741,528.625,851.988,106.774,491.928,657.235,69.447,475.894,451.617,0.785689,414.152,240.581,-66.9522,363.605,200.034,150.823,409.679,193.67,81.6822,134.704,819.03,86.4453,154.116,626.898,-70.7447,144.755,497.52,-250.481,180.645,383.26,-324.14,221.476,420.094,-248.834,198.927,222.805
265,0,99.9767,461.34,1130.96,92.7219,189.155,1106.45,-109.584,368.415,1190.97,-104.827,264.487,1176.81,64.1745,529.499,851.58,101.502,492.847,656.484,62.4117,476.365,451.18,-7.48562,414.111,240.675,-75.4839,363.536,200.727,142.117,409.687,193.409,84.2652,135.109,819.999,95.4425,154.813,628.862,-60.567,145.111,500.124,-240.523,180.833,385.748,-315.244,221.342,421.723,-236.456,199.168,225.927
266,0,99.3088,462.455,1131.19,92.4277,189.967,1107.09,-110.077,368.819,1191.58,-105.174,265.024,1177.26,60.9509,530.111,851.522,95.8799,493.575,655.947,55.1396,476.736,450.944,-15.8005,414.123,240.921,-84.0627,363.482,201.513,133.358,409.652,193.142,86.3429,135.489,821.256,104.187,155.579,631.386,-50.303,145.567,502.687,-229.965,181.042,387.346,-306.109,221.121,421.847,-222.052,199.424,228.596
267,0,98.5122,463.469,1131.62,92.0471,190.689,1108.08,-110.64,369.183,1192.45,-105.598,265.507,1178.09,57.9783,530.481,851.795,89.9528,494.11,655.637,47.6643,477.005,450.92,-24.2192,414.175,241.329,-92.6864,363.465,202.41,124.539,409.576,192.884,88.0456,135.838,822.801,112.653,156.411,634.43,-40.0025,146.12,505.138,-218.848,181.274,387.981,-296.703,220.855,420.414,-205.813,199.68,230.742
268,0,97.6071,464.373,1132.25,91.5919,191.317,1109.43,-111.258,369.514,1193.59,-106.087,265.941,1179.27,55.1925,530.631,852.36,83.7635,494.454,655.561,40.0186,477.176,451.118,-32.7747,414.272,241.924,-101.348,363.501,203.437,115.659,409.465,192.647,89.5175,136.15,824.641,120.809,157.303,637.941,-29.7091,146.763,507.402,-207.2,181.533,387.597,-286.964,220.588,417.401,-187.949,199.922,232.316
269,0,96.6135,465.159,1133.06,91.0759,191.85,1111.12,-111.915,369.815,1194.99,-106.631,266.331,1180.78,52.502,530.586,853.171,77.3514,494.618,655.724,32.2337,477.255,451.541,-41.466,414.443,242.736,-110.04,363.603,204.611,106.719,409.327,192.438,90.9036,136.416,826.788,128.615,158.246,641.86,-19.4591,147.482,509.411,-195.033,181.824,386.157,-276.811,220.365,412.808,-168.681,200.137,233.298
270,0,95.5512,465.824,1134.05,90.514,192.288,1113.12,-112.597,370.091,1196.62,-107.218,266.678,1182.61,49.8023,530.372,854.176,70.7521,494.616,656.123,24.3382,477.253,452.191,-50.2677,414.711,243.789,-118.755,363.778,205.951,97.7209,409.169,192.26,92.3383,136.628,829.257,136.022,159.231,646.12,-9.28281,148.26,511.101,-182.348,182.15,383.649,-266.146,220.227,406.663,-148.223,200.316,233.693
271,0,94.4393,466.365,1135.19,89.9227,192.633,1115.4,-113.289,370.341,1198.48,-107.834,266.984,1184.72,46.9899,530.013,855.325,63.9973,494.464,656.753,16.3585,477.182,453.065,-59.1398,415.044,245.082,-127.486,364.027,207.473,88.6689,408.996,192.112,93.9338,136.777,832.055,142.972,160.244,650.648,0.795701,149.076,512.421,-169.129,182.517,380.086,-254.858,220.209,399.026,-126.774,200.452,233.534
272,0,93.2962,466.783,1136.47,89.3197,192.888,1117.95,-113.977,370.564,1200.53,-108.466,267.248,1187.09,43.9738,529.531,856.575,57.1158,494.184,657.607,8.31794,477.053,454.156,-68.0274,415.36,246.572,-136.23,364.344,209.189,79.5667,408.814,191.99,95.772,136.856,835.189,149.402,161.268,655.367,10.7572,149.909,513.33,-155.348,182.93,375.51,-242.831,220.334,389.988,-104.507,200.547,232.876
273,0,92.139,467.081,1137.87,88.7236,193.059,1120.72,-114.649,370.757,1202.77,-109.097,267.466,1189.66,40.6858,528.944,857.897,50.134,493.795,658.67,0.23817,476.876,455.452,-76.8628,415.578,248.191,-144.987,364.72,211.112,70.4172,408.626,191.888,97.8991,136.861,838.65,155.245,162.286,660.195,20.5861,150.736,513.802,-140.968,183.393,369.993,-229.95,220.619,379.674,-81.5689,200.605,231.797
274,0,90.9841,467.264,1139.37,88.1539,193.154,1123.68,-115.291,370.912,1205.15,-109.713,267.634,1192.42,37.0857,528.267,859.267,43.0773,493.319,659.928,-7.86083,476.659,456.939,-85.585,415.665,249.878,-153.757,365.141,213.247,61.2219,408.431,191.8,100.323,136.793,842.419,160.432,163.278,665.049,30.2692,151.535,513.831,-125.945,183.911,363.634,-216.108,221.068,368.246,-58.0773,200.639,230.393
275,0,89.8468,467.34,1140.94,87.6306,193.18,1126.79,-115.891,371.023,1207.65,-110.295,267.744,1195.31,33.1641,527.513,860.675,35.9712,492.773,661.359,-15.9598,476.41,458.599,-94.1691,415.656,251.612,-162.543,365.59,215.597,51.9805,408.233,191.719,103.014,136.654,846.465,164.899,164.221,669.848,39.794,152.287,513.425,-110.242,184.484,356.563,-201.216,221.676,355.897,-34.126,200.665,228.773
276,0,88.7413,467.318,1142.57,87.1738,193.149,1130,-116.438,371.079,1210.23,-110.827,267.79,1198.29,28.941,526.692,862.115,28.8428,492.173,662.941,-24.0394,476.13,460.413,-102.641,415.621,253.422,-171.344,366.048,218.158,42.6906,408.029,191.637,105.91,136.452,850.74,168.59,165.094,674.513,49.147,152.977,512.614,-93.8285,185.114,348.936,-185.208,222.429,342.852,-9.7917,200.704,227.055
277,0,87.681,467.209,1144.23,86.8033,193.069,1133.28,-116.922,371.07,1212.87,-111.292,267.762,1201.31,24.4623,525.814,863.585,21.722,491.532,664.648,-32.08,475.821,462.356,-111.063,415.622,255.359,-180.16,366.496,220.921,33.3482,407.82,191.55,108.923,136.194,855.181,171.463,165.875,678.968,58.3128,153.592,511.442,-76.6956,185.796,340.928,-168.052,223.306,329.359,14.8567,200.777,225.357
278,0,86.6783,467.024,1145.9,86.538,192.951,1136.57,-117.333,370.984,1215.51,-111.674,267.649,1204.33,19.7948,524.883,865.085,14.6427,490.859,666.45,-40.0604,475.482,464.404,-119.486,415.685,257.45,-188.988,366.914,223.871,23.9475,407.604,191.454,111.946,135.889,859.716,173.489,166.542,683.145,67.2726,154.123,509.969,-58.8616,186.527,332.73,-149.757,224.284,315.686,39.7474,200.905,223.795
279,0,85.7448,466.776,1147.54,86.3959,192.806,1139.84,-117.663,370.81,1218.12,-111.956,267.442,1207.31,15.0196,523.906,866.609,7.64365,490.16,668.316,-47.9582,475.109,466.529,-127.931,415.792,259.669,-197.819,367.282,226.988,14.4822,407.38,191.349,114.863,135.545,864.257,174.667,167.078,686.985,76.0033,154.567,508.264,-40.3805,187.3,324.539,-130.383,225.335,302.107,64.795,201.105,222.47
280,0,84.8916,466.474,1149.15,86.3931,192.641,1143.03,-117.903,370.535,1220.67,-112.125,267.13,1210.19,10.2261,522.887,868.148,0.768967,489.437,670.21,-55.7492,474.7,468.703,-136.383,415.897,261.96,-206.644,367.582,230.249,4.94543,407.146,191.235,117.558,135.164,868.709,175.016,167.467,690.438,84.4774,154.923,506.403,-21.3492,188.106,316.55,-110.046,226.432,288.894,89.8901,201.394,221.46
281,0,84.1287,466.13,1150.69,86.544,192.466,1146.11,-118.049,370.149,1223.09,-112.167,266.704,1212.93,5.50629,521.829,869.685,-5.93187,488.691,672.095,-63.4075,474.25,470.894,-144.829,415.95,264.277,-215.45,367.798,233.627,-4.66884,406.901,191.113,119.925,134.745,872.974,174.584,167.702,693.466,92.6624,155.197,504.464,-1.91111,188.935,308.942,-88.9221,227.553,276.305,114.891,201.779,220.818
282,0,83.4657,465.752,1152.13,86.8602,192.286,1149.03,-118.094,369.642,1225.36,-112.072,266.155,1215.49,0.950247,520.737,871.197,-12.4043,487.923,673.932,-70.9054,473.76,473.071,-153.273,415.919,266.62,-224.225,367.918,237.099,-14.3656,406.643,190.988,121.877,134.281,876.947,173.45,167.777,696.042,100.521,155.395,502.518,17.7419,189.778,301.874,-67.2512,228.677,264.569,139.62,202.267,220.557
283,0,82.9109,465.348,1153.46,87.3507,192.104,1151.75,-118.034,369.007,1227.43,-111.832,265.477,1217.82,-3.35746,519.613,872.653,-18.5895,487.129,675.68,-78.2138,473.229,475.202,-161.735,415.804,269.017,-232.958,367.935,240.643,-24.1479,406.372,190.863,123.347,133.759,880.527,171.717,167.699,698.153,108.013,155.528,500.63,37.3716,190.628,295.473,-45.3324,229.79,253.879,163.858,202.857,220.655
284,0,82.4722,464.924,1154.66,88.0216,191.923,1154.24,-117.868,368.237,1229.26,-111.441,264.664,1219.89,-7.33987,518.464,874.017,-24.4257,486.311,677.298,-85.3023,472.662,477.256,-170.232,415.625,271.487,-241.642,367.851,244.243,-34.0164,406.089,190.742,124.299,133.166,883.622,169.517,167.479,699.798,115.093,155.61,498.848,56.6985,191.478,289.826,-23.5193,230.883,244.382,187.349,203.546,221.048
285,0,82.1561,464.481,1155.7,88.8753,191.741,1156.45,-117.593,367.33,1230.82,-110.897,263.715,1221.67,-10.9289,517.295,875.247,-29.8493,485.471,678.746,-92.1394,472.067,479.203,-178.755,415.409,274.015,-250.273,367.676,247.886,-43.9692,405.793,190.63,124.731,132.486,886.149,167,167.139,700.99,121.712,155.659,497.205,75.4105,192.325,284.979,-2.20906,231.953,236.17,209.803,204.328,221.638
286,0,81.9678,464.021,1156.57,89.9112,191.554,1158.35,-117.211,366.287,1232.07,-110.201,262.629,1223.13,-14.0657,516.115,876.303,-34.797,484.613,679.985,-98.6929,471.455,481.014,-187.271,415.16,276.566,-258.851,367.429,251.566,-54.0011,405.487,190.527,124.672,131.712,888.043,164.329,166.705,701.752,127.821,155.691,495.716,93.1755,193.171,280.933,18.1727,233.001,229.279,230.91,205.193,222.295
287,0,81.9112,463.542,1157.24,91.1246,191.356,1159.93,-116.724,365.109,1232.98,-109.356,261.411,1224.23,-16.7007,514.932,877.142,-39.2075,483.745,680.977,-104.93,470.843,482.663,-195.734,414.861,279.111,-267.379,367.142,255.286,-64.1045,405.174,190.436,124.189,130.845,889.265,161.671,166.213,702.114,133.37,155.727,494.377,109.656,194.019,277.645,37.1905,234.035,223.69,250.347,206.132,222.874
288,0,81.9882,463.04,1157.71,92.5076,191.139,1161.17,-116.134,363.804,1233.53,-108.371,260.066,1224.97,-18.7932,513.758,877.724,-43.0229,482.881,681.689,-110.817,470.251,484.129,-204.103,414.501,281.646,-275.861,366.854,259.048,-74.2685,404.858,190.356,123.378,129.898,889.802,159.189,165.701,702.118,138.308,155.786,493.166,124.525,194.878,275.038,54.421,235.061,219.33,267.798,207.133,223.228
289,0,82.1989,462.51,1157.95,94.0486,190.892,1162.04,-115.448,362.38,1233.71,-107.256,258.604,1225.34,-20.3109,512.606,878.014,-46.1905,482.037,682.092,-116.322,469.699,485.394,-212.34,414.099,284.189,-284.298,366.614,262.866,-84.4803,404.543,190.284,122.364,128.902,889.671,157.027,165.208,701.804,142.587,155.887,492.05,137.485,195.757,273.006,69.4759,236.087,216.082,282.971,208.181,223.221
290,0,82.5413,461.945,1157.97,95.7326,190.604,1162.54,-114.673,360.851,1233.5,-106.024,257.037,1225.33,-21.2294,511.489,877.982,-48.6643,481.235,682.163,-121.408,469.212,486.446,-220.411,413.709,286.765,-292.682,366.47,266.753,-94.7252,404.232,190.215,121.292,127.902,888.924,155.303,164.77,701.216,146.163,156.047,490.984,148.283,196.665,271.424,82.0255,237.122,213.794,295.618,209.26,222.75
291,0,83.011,461.336,1157.75,97.5414,190.263,1162.68,-113.817,359.231,1232.9,-104.692,255.381,1224.94,-21.5324,510.422,877.606,-50.4057,480.497,681.885,-126.042,468.813,487.28,-228.288,413.4,289.391,-300.996,366.471,270.728,-104.988,403.929,190.143,120.319,126.956,887.641,154.097,164.417,700.395,149,156.279,489.918,156.73,197.609,270.158,91.8195,238.169,212.294,305.548,210.351,221.752
292,0,83.6014,460.676,1157.29,99.4537,189.855,1162.46,-112.891,357.538,1231.92,-103.279,253.652,1224.2,-21.2113,509.418,876.875,-51.3842,479.851,681.248,-130.188,468.524,487.896,-235.945,413.232,292.064,-309.203,366.658,274.817,-115.252,403.634,190.06,119.598,126.124,885.926,153.448,164.169,699.373,151.069,156.592,488.802,162.707,198.595,269.082,98.7043,239.227,211.398,312.647,211.432,220.214
293,0,84.3032,459.955,1156.59,101.446,189.368,1161.89,-111.907,355.791,1230.57,-101.806,251.87,1223.11,-20.2651,508.493,875.785,-51.5779,479.323,680.251,-133.807,468.364,488.302,-243.347,413.251,294.764,-317.246,367.06,279.048,-125.505,403.35,189.956,119.267,125.465,883.903,153.348,164.032,698.18,152.352,156.987,487.59,166.177,199.621,268.081,102.634,240.291,210.927,316.888,212.479,218.177
294,0,85.1048,459.167,1155.66,103.491,188.792,1160.99,-110.877,354.01,1228.87,-100.295,250.054,1221.7,-18.7012,507.658,874.346,-50.9735,478.94,678.9,-136.86,468.35,488.515,-250.454,413.488,297.47,-325.043,367.691,283.457,-135.732,403.075,189.824,119.433,125.022,881.697,153.742,164.001,696.832,152.845,157.461,486.245,167.191,200.68,267.059,103.674,241.351,210.714,318.335,213.468,215.731
295,0,85.9926,458.304,1154.5,105.561,188.116,1159.79,-109.816,352.217,1226.86,-98.7706,248.225,1220.01,-16.5347,506.927,872.576,-49.5662,478.727,677.211,-139.309,468.493,488.555,-257.222,413.966,300.178,-332.486,368.544,288.083,-145.925,402.807,189.657,120.154,124.815,879.429,154.536,164.051,695.34,152.559,158.001,484.741,165.876,201.757,265.949,101.995,242.389,210.617,317.145,214.376,212.999
296,0,86.9507,457.362,1153.12,107.628,187.333,1158.33,-108.74,350.433,1224.56,-97.2567,246.403,1218.08,-13.7893,506.31,870.506,-47.3593,478.703,675.207,-141.11,468.799,488.451,-263.607,414.701,302.914,-339.443,369.596,292.974,-156.074,402.54,189.452,121.432,124.833,877.199,155.599,164.148,693.706,151.519,158.589,483.064,162.434,202.831,264.71,97.8639,243.387,210.524,313.554,215.18,210.129
297,0,87.9614,456.338,1151.55,109.66,186.438,1156.63,-107.665,348.677,1222.01,-95.7778,244.609,1215.94,-10.497,505.816,868.178,-44.3637,478.884,672.921,-142.222,469.271,488.237,-269.528,415.697,305.708,-345.766,370.803,298.177,-166.169,402.27,189.214,123.202,125.031,875.08,156.78,164.245,691.928,149.763,159.2,481.214,157.126,203.876,263.328,91.6181,244.322,210.352,307.868,215.863,207.272
298,0,89.0059,455.231,1149.8,111.628,185.429,1154.73,-106.606,346.971,1219.28,-94.3578,242.861,1213.65,-6.69795,505.449,865.642,-40.598,479.277,670.392,-142.606,469.904,487.95,-274.817,416.911,308.562,-351.294,372.112,303.744,-176.197,401.99,188.956,125.331,125.33,873.109,157.918,164.289,690.003,147.344,159.804,479.205,150.254,204.861,261.811,83.6445,245.171,210.051,300.439,216.415,204.569
299,0,90.064,454.043,1147.89,113.5,184.307,1152.68,-105.582,345.33,1216.39,-93.02,241.176,1211.26,-2.44022,505.212,862.954,-36.0875,479.882,667.669,-142.224,470.692,487.631,-279.239,418.237,311.461,-355.867,373.462,309.72,-186.136,401.694,188.703,127.627,125.629,871.286,158.853,164.227,687.932,144.323,160.368,477.06,142.14,205.757,260.186,74.3499,245.915,209.603,291.644,216.828,202.131
300,0,91.1152,452.778,1145.86,115.249,183.078,1150.53,-104.609,343.77,1213.42,-91.786,239.569,1208.81,2.2206,505.101,860.178,-30.8646,480.69,664.806,-141.043,471.621,487.322,-282.576,419.533,314.423,-359.339,374.79,316.145,-195.948,401.378,188.496,129.855,125.811,869.581,159.442,164.009,685.718,140.765,160.86,474.814,133.107,206.535,258.491,64.1334,246.537,209.009,281.856,217.105,200.038
301,0,92.1388,451.444,1143.73,116.846,181.748,1148.32,-103.704,342.305,1210.4,-90.6758,238.053,1206.36,7.22222,505.105,857.376,-24.968,481.682,661.861,-139.04,472.678,487.065,-284.733,420.677,317.543,-361.59,376.039,323.045,-205.577,401.042,188.388,131.756,125.764,867.94,159.565,163.596,683.376,136.738,161.249,472.506,123.462,207.171,256.771,53.3623,247.025,208.294,271.429,217.252,198.327
302,0,93.1146,450.05,1141.54,118.266,180.327,1146.08,-102.881,340.945,1207.41,-89.7075,236.637,1203.96,12.4966,505.21,854.613,-18.4428,482.831,658.898,-136.199,473.844,486.901,-285.744,421.623,320.969,-362.541,377.165,330.427,-214.933,400.691,188.449,133.079,125.388,866.298,159.132,162.961,680.928,132.306,161.507,470.176,113.475,207.65,255.071,42.3528,247.375,207.493,260.672,217.281,197
303,0,94.023,448.606,1139.33,119.487,178.829,1143.87,-102.156,339.696,1204.49,-88.8963,235.329,1201.66,17.9709,505.391,851.949,-11.3401,484.102,655.984,-132.519,475.097,486.866,-285.703,422.416,324.829,-362.159,378.132,338.273,-223.898,400.338,188.76,133.608,124.616,864.595,158.087,162.093,678.408,127.525,161.614,467.869,103.375,207.962,253.434,31.358,247.591,206.648,249.839,217.208,196.027
