Trajectories
100
,,Subj:LASI,,,Subj:RASI,,,Subj:LPSI,,,Subj:RPSI,,,Subj:LTHI,,,Subj:LKNE,,,Subj:LTIB,,,Subj:LANK,,,Subj:LHEE,,,Subj:LTOE,,,Subj:RTHI,,,Subj:RKNE,,,Subj:RTIB,,,Subj:RANK,,,Subj:RHEE,,,Subj:RTOE,,,
Frame,Sub Frame,X,Y,Z,X,Y,Z,X,Y,Z,X,Y,Z,X,Y,Z,X,Y,Z,X,Y,Z,X,Y,Z,X,Y,Z,X,Y,Z,X,Y,Z,X,Y,Z,X,Y,Z,X,Y,Z,X,Y,Z,X,Y,Z
,,mm,mm,mm,mm,mm,mm,mm,mm,mm,mm,mm,mm,mm,mm,mm,mm,mm,mm,mm,mm,mm,mm,mm,mm,mm,mm,mm,mm,mm,mm,mm,mm,mm,mm,mm,mm,mm,mm,mm,mm,mm,mm,mm,mm,mm,mm,mm,mm
1,0,24.2292,438.342,1141.63,59.269,177.477,1141.92,-172.902,357.622,1200.92,-152.041,223.76,1195.24,-67.3829,498.908,848.138,-100.953,480.922,653.687,-233.229,488.773,537.269,,,,-461.072,399.319,369.219,-370.495,400.459,188.829,69.6531,119.138,862.501,98.074,159.213,676.921,73.325,154.658,464.596,64.948,199.617,249.198,-1.55656,232.54,208.478,210.103,214.278,201.569
2,0,23.6051,436.924,1137.1,58.7032,174.538,1139.25,-174.037,356.59,1195.91,-153.214,223.153,1192.6,-60.0655,498.794,844.422,-90.8949,482.327,648.709,-223.975,491.103,536.964,-399.106,438.425,348.162,-456.496,400.134,381.18,-380.564,400.355,194.409,70.0501,116.736,860.486,97.2761,156.882,673.999,68.8317,153.089,462.358,53.4299,198.989,248.19,-14.1191,231.933,208.344,197.394,214.095,200.468
3,0,22.9585,435.562,1133.09,58.0296,171.788,1136.86,-175.14,355.547,1191.49,-154.375,222.509,1190.31,-53.2662,498.64,841.137,-80.778,483.597,644.449,-214.486,493.183,536.869,-395.691,439.095,356.621,-451.464,400.521,392.152,-387.654,400.647,200.156,69.5404,114.384,858.476,95.6749,154.647,671.205,63.7181,151.618,460.227,41.8793,198.38,247.237,-26.6053,231.371,208.23,184.766,213.878,199.452
4,0,22.2897,434.255,1129.58,57.2485,169.227,1134.73,-176.21,354.495,1187.66,-155.524,221.829,1188.35,-46.984,498.445,838.282,-70.6039,484.733,640.908,-204.766,495.014,536.983,-391.493,439.549,364.559,-445.975,400.487,402.126,-391.765,401.326,206.053,68.1302,112.083,856.474,93.2717,152.51,668.54,57.9853,150.245,458.204,30.2958,197.793,246.338,-39.0159,230.855,208.135,172.219,213.629,198.52
5,0,21.5987,433.004,1126.58,56.3607,166.853,1132.86,-177.247,353.435,1184.42,-156.661,221.114,1186.75,-41.2157,498.21,835.859,-60.3763,485.734,638.086,-194.819,496.593,537.306,-386.51,439.79,371.967,-440.033,400.047,411.087,-392.901,402.367,212.055,65.8356,109.838,854.488,90.0699,150.472,666.006,51.6369,148.969,456.293,18.6787,197.227,245.496,-51.353,230.383,208.06,159.752,213.35,197.672
6,0,20.8858,431.804,1124.08,55.3683,164.664,1131.26,-178.252,352.371,1181.76,-157.787,220.364,1185.48,-35.9527,497.934,833.87,-50.1027,486.599,635.983,-184.655,497.917,537.837,-380.741,439.821,378.825,-433.64,399.231,418.999,-391.076,403.726,218.082,62.689,107.659,852.529,86.0769,148.539,663.61,44.6799,147.792,454.499,7.0262,196.683,244.711,-63.6205,229.955,208.007,147.361,213.045,196.907
7,0,20.1515,430.653,1122.08,54.2742,162.655,1129.92,-179.226,351.308,1179.67,-158.901,219.581,1184.55,-31.1783,497.619,832.322,-39.7962,487.323,634.599,-174.293,498.983,538.573,-374.185,439.65,385.089,-426.802,398.087,425.811,-386.328,405.326,224.013,58.7424,105.559,850.62,81.3049,146.719,661.361,37.126,146.714,452.832,-4.6643,196.162,243.988,-75.8248,229.571,207.981,135.042,212.719,196.22
8,0,19.3965,429.547,1120.57,53.083,160.821,1128.84,-180.169,350.256,1178.15,-160.003,218.768,1183.96,-26.864,497.268,831.222,-29.4765,487.904,633.931,-163.757,499.783,539.508,-366.84,439.292,390.694,-419.521,396.678,431.451,-378.725,407.068,229.694,54.0688,103.559,848.787,75.7722,145.023,659.272,28.9925,145.736,451.306,-16.3963,195.664,243.333,-87.9749,229.227,207.986,122.787,212.382,195.609
9,0,18.6218,428.478,1119.54,51.8007,159.152,1128,-181.084,349.223,1177.18,-161.094,217.929,1183.7,-22.9671,496.884,830.58,-19.1718,488.336,633.974,-153.083,500.312,540.634,-358.707,438.764,395.549,-411.797,395.081,435.83,-368.384,408.828,234.954,48.7613,101.683,847.064,69.504,143.461,657.361,20.3025,144.86,449.939,-28.1741,195.192,242.755,-100.082,228.922,208.032,110.585,212.041,195.07
10,0,17.8287,427.443,1118.98,50.4351,157.641,1127.39,-181.973,348.221,1176.74,-162.173,217.068,1183.76,-19.4297,496.474,830.41,-8.91881,488.613,634.719,-142.313,500.566,541.938,-349.789,438.09,399.546,-403.626,393.376,438.85,-355.47,410.475,239.62,42.9287,99.9584,845.487,62.5325,142.048,655.647,11.0849,144.084,448.75,-40.0021,194.746,242.265,-112.16,228.652,208.132,98.423,211.705,194.597
11,0,17.0191,426.434,1118.87,48.9948,156.274,1127.01,-182.84,347.261,1176.8,-163.24,216.193,1184.14,-16.1805,496.045,830.723,1.23626,488.73,636.148,-131.499,500.542,543.398,-340.095,437.296,402.564,-394.997,391.643,440.411,-340.2,411.883,243.538,36.6894,98.4123,844.092,54.8973,140.795,654.152,1.37434,143.409,447.762,-51.8847,194.328,241.877,-124.223,228.412,208.303,86.2856,211.383,194.185
12,0,16.1952,425.446,1119.19,47.49,155.043,1126.85,-183.686,346.355,1177.35,-164.294,215.31,1184.81,-13.1388,495.607,831.531,11.2378,488.681,638.234,-120.698,500.239,544.988,-329.639,436.408,404.484,-385.888,389.954,440.42,-322.834,412.949,246.586,30.1647,97.0712,842.914,46.645,139.711,652.897,-8.7892,142.833,446.996,-63.8256,193.939,241.608,-136.285,228.197,208.565,74.1556,211.08,193.828
13,0,15.36,424.478,1119.92,45.9315,153.934,1126.87,-184.517,345.512,1178.36,-165.335,214.429,1185.77,-10.2201,495.169,832.84,21.021,488.46,640.942,-109.973,499.664,546.673,-318.44,435.455,405.195,-376.269,388.362,438.8,-303.663,413.61,248.69,23.4703,95.9569,841.98,37.8289,138.804,651.903,-19.3612,142.351,446.475,-75.8269,193.58,241.478,-148.359,228.002,208.943,62.0153,210.801,193.519
14,0,14.5176,423.527,1121.03,44.3306,152.937,1127.07,-185.336,344.741,1179.78,-166.362,213.559,1187,-7.34442,494.743,834.647,30.5129,488.065,644.222,-99.3853,498.828,548.407,-306.523,434.462,404.611,-366.1,386.9,435.499,-282.989,413.852,249.825,16.7096,95.0845,841.309,28.5083,138.074,651.19,-30.2932,141.96,446.22,-87.889,193.25,241.508,-160.457,227.819,209.468,49.8473,210.549,193.254
15,0,13.6729,422.596,1122.5,42.6988,152.042,1127.44,-186.146,344.048,1181.58,-167.372,212.712,1188.48,-4.44394,494.339,836.943,39.6332,487.495,648.012,-88.9995,497.746,550.141,-293.912,433.449,402.676,-355.328,385.579,430.499,-261.111,413.715,250.017,9.96827,94.4612,840.913,18.748,137.518,650.771,-41.5334,141.652,446.246,-100.01,192.949,241.722,-172.586,227.645,210.17,37.6352,210.321,193.024
16,0,12.8327,421.689,1124.29,41.0476,151.242,1127.94,-186.949,343.435,1183.73,-168.365,211.9,1190.19,-1.46987,493.966,839.706,48.2959,486.752,652.239,-78.8753,496.443,551.816,-280.632,432.436,399.371,-343.891,384.387,423.817,-238.301,413.289,249.336,3.30983,94.0851,840.794,8.61758,137.126,650.657,-53.0277,141.418,446.569,-112.184,192.674,242.14,-184.75,227.472,211.084,25.3648,210.115,192.823
17,0,12.005,420.813,1126.39,39.3883,150.53,1128.58,-187.745,342.906,1186.19,-169.335,211.135,1192.11,1.60269,493.631,842.904,56.4116,485.843,656.816,-69.0676,494.945,553.369,-266.699,431.435,394.722,-331.716,383.295,415.514,-214.795,412.705,247.886,-3.22526,93.9452,840.945,-1.80989,136.885,650.855,-64.7201,141.25,447.198,-124.405,192.425,242.787,-196.947,227.296,212.245,13.0241,209.924,192.644
18,0,11.2002,419.978,1128.75,37.7318,149.902,1129.34,-188.532,342.459,1188.91,-170.281,210.432,1194.22,4.77287,493.338,846.491,63.8895,484.777,661.646,-59.6243,493.286,554.734,-252.12,430.456,388.795,-318.722,382.264,405.692,-190.78,412.114,245.797,-9.61885,94.0225,841.355,-12.4583,136.776,651.365,-76.5533,141.135,448.137,-136.661,192.196,243.681,-209.172,227.113,213.685,0.604182,209.742,192.477
19,0,10.4305,419.195,1131.34,36.0884,149.354,1130.2,-189.305,342.095,1191.84,-171.196,209.805,1196.49,8.01517,493.088,850.413,70.6405,483.569,666.624,-50.5844,491.501,555.849,-236.89,429.503,381.7,-304.825,381.251,394.492,-166.389,411.669,243.212,-15.872,94.2911,842.007,-23.2496,136.776,652.183,-88.4696,141.063,449.387,-148.938,191.985,244.84,-221.415,226.917,215.435,-11.9012,209.56,192.314
20,0,9.71052,418.477,1134.14,34.4683,148.885,1131.15,-190.057,341.814,1194.95,-172.076,209.268,1198.89,11.2833,492.878,854.602,76.5804,482.234,671.641,-41.9775,489.626,556.655,-220.992,428.58,373.583,-289.937,380.216,382.098,-141.705,411.503,240.277,-22.0001,94.7204,842.88,-34.1051,136.863,653.298,-100.411,141.021,450.942,-161.219,191.784,246.277,-233.659,226.705,217.523,-24.4957,209.369,192.147
21,0,9.05684,417.834,1137.09,32.8814,148.495,1132.19,-190.777,341.615,1198.18,-172.914,208.837,1201.41,14.5155,492.7,858.983,81.6332,480.796,676.585,-33.8231,487.697,557.099,-204.397,427.689,364.625,-273.978,379.13,368.725,-116.77,411.704,237.138,-28.0269,95.2772,843.955,-44.9459,137.011,654.695,-112.321,140.997,452.793,-173.488,191.59,248,-245.889,226.473,219.97,-37.1805,209.162,191.968
22,0,8.48803,417.277,1140.17,31.3374,148.182,1133.31,-191.452,341.502,1201.49,-173.703,208.527,1204.01,17.6408,492.547,863.474,85.7351,479.277,681.349,-26.1304,485.75,557.142,-187.071,426.832,355.033,-256.879,377.978,354.617,-91.5898,412.311,233.936,-33.9784,95.9277,845.212,-55.6942,137.198,656.355,-124.143,140.982,454.924,-185.722,191.395,250.012,-258.083,226.218,222.788,-49.9553,208.93,191.771
23,0,8.02412,416.816,1143.32,29.8462,147.947,1134.5,-192.065,341.48,1204.83,-174.434,208.352,1206.66,20.5849,492.408,867.99,88.838,477.704,685.829,-18.8995,483.816,556.759,-168.981,426.008,345.034,-238.592,376.762,340.04,-66.1549,413.3,230.808,-39.8762,96.6401,846.631,-66.2737,137.402,658.253,-135.822,140.965,457.315,-197.903,191.193,252.309,-270.22,225.936,225.984,-62.8185,208.671,191.554
24,0,7.68604,416.455,1146.52,28.4179,147.788,1135.76,-192.596,341.555,1208.15,-175.101,208.325,1209.32,23.2741,492.276,872.44,90.9135,476.105,689.934,-12.1216,481.922,555.938,-150.106,425.22,334.865,-219.096,375.497,325.275,-40.4504,414.591,227.893,-45.7329,97.3853,848.194,-76.6108,137.605,660.359,-147.305,140.939,459.939,-210.008,190.978,254.883,-282.28,225.624,229.555,-75.7677,208.383,191.315
25,0,7.49487,416.197,1149.7,27.0632,147.704,1137.08,-193.026,341.739,1211.4,-175.692,208.46,1211.98,25.6387,492.146,876.734,91.9558,474.509,693.581,-5.78082,480.092,554.685,-130.444,424.467,324.768,-198.412,374.213,310.606,-14.4728,416.059,225.33,-51.5475,98.1389,849.883,-86.6344,137.794,662.641,-158.542,140.898,462.766,-222.017,190.742,257.719,-294.243,225.279,233.488,-88.8,208.066,191.06
26,0,7.47092,416.041,1152.83,25.7933,147.693,1138.46,-193.333,342.044,1214.54,-176.199,208.766,1214.59,27.6143,492.017,880.781,91.9857,472.943,696.708,0.144492,478.344,553.021,-110.029,423.748,314.976,-176.608,372.946,296.312,11.7563,417.55,223.267,-57.3039,98.8815,851.679,-96.2765,137.959,665.059,-169.485,140.837,465.761,-233.912,190.481,260.796,-306.091,224.896,237.763,-101.912,207.723,190.796
27,0,7.63277,415.981,1155.85,24.6199,147.75,1139.89,-193.494,342.483,1217.52,-176.613,209.252,1217.11,29.1429,491.9,884.492,91.0519,471.434,699.266,5.68014,476.691,550.98,-88.9356,423.06,305.708,-153.807,371.733,282.655,38.1784,418.904,221.855,-62.9695,99.599,853.563,-105.472,138.097,667.572,-180.088,140.754,468.884,-245.675,190.19,264.09,-317.809,224.474,242.352,-115.099,207.361,190.534
28,0,7.99629,416.011,1158.72,23.5553,147.873,1141.35,-193.49,343.074,1220.29,-176.925,209.924,1219.52,30.1727,491.807,887.778,89.2329,470.004,701.225,10.8543,475.141,548.61,-67.2927,422.399,297.152,-130.195,370.607,269.869,64.6875,419.973,221.242,-68.4971,100.283,855.507,-114.161,138.206,670.132,-190.31,140.648,472.09,-257.288,189.862,267.57,-329.385,224.009,247.218,-128.356,206.984,190.286
29,0,8.57361,416.119,1161.37,22.6118,148.058,1142.82,-193.301,343.83,1222.81,-177.128,210.783,1221.76,30.6599,491.761,890.556,86.6366,468.674,702.577,15.6961,473.698,545.965,-45.284,421.754,289.459,-106.022,369.593,258.148,91.1232,420.64,221.559,-73.8268,100.93,857.484,-122.282,138.291,672.688,-200.11,140.518,475.333,-268.736,189.495,271.204,-340.808,223.498,252.323,-141.675,206.601,190.063
30,0,9.37225,416.295,1163.77,21.8021,148.301,1144.28,-192.912,344.765,1225.05,-177.214,211.829,1223.8,30.5712,491.787,892.75,83.3995,467.458,703.329,20.2337,472.363,543.105,-23.1515,421.114,282.735,-81.6004,368.701,247.639,117.268,420.829,222.899,-78.8897,101.541,859.455,-129.781,138.356,675.183,-209.453,140.366,478.563,-280.005,189.084,274.957,-352.07,222.94,257.622,-155.046,206.218,189.877
31,0,10.3945,416.526,1165.86,21.1379,148.599,1145.71,-192.312,345.889,1226.96,-177.178,213.055,1225.6,29.8889,491.91,894.293,79.6833,466.363,703.508,24.4933,471.133,540.091,-1.1916,420.465,277.03,-57.3021,367.931,238.433,142.846,420.513,225.289,-83.612,102.122,861.377,-136.605,138.41,677.558,-218.302,140.19,481.727,-291.078,188.624,278.794,-363.162,222.333,263.074,-168.457,205.839,189.732
32,0,11.6366,416.8,1167.6,20.6301,148.951,1147.07,-191.496,347.209,1228.52,-177.018,214.452,1227.13,28.617,492.151,895.133,75.6705,465.391,703.156,28.4979,470.003,536.984,20.2537,419.791,272.338,-33.5457,367.268,230.564,167.534,419.702,228.673,-87.9186,102.68,863.199,-142.701,138.462,679.748,-226.625,139.992,484.773,-301.939,188.111,282.679,-374.07,221.674,268.634,-181.894,205.468,189.626
33,0,13.0892,417.108,1168.95,20.2877,149.356,1148.33,-190.465,348.726,1229.69,-176.732,216.007,1228.33,26.7892,492.521,895.239,71.5583,464.538,702.331,32.2666,468.966,533.84,40.8092,419.073,268.598,-10.7838,366.688,224.008,190.964,418.446,232.885,-91.7371,103.228,864.861,-148.021,138.521,681.686,-234.39,139.77,487.648,-312.567,187.54,286.576,-384.78,220.961,274.267,-195.344,205.105,189.548
34,0,14.7363,417.443,1169.88,20.1173,149.816,1149.43,-189.226,350.432,1230.46,-176.321,217.7,1229.17,24.4768,493.017,894.606,67.5504,463.793,701.099,35.8137,468.014,530.709,60.0835,418.295,265.699,10.516,366.159,218.689,212.747,416.809,237.65,-95.0007,103.778,866.298,-152.518,138.592,683.3,-241.562,139.524,490.3,-322.939,186.905,290.454,-395.266,220.191,279.94,-208.792,204.749,189.482
35,0,16.5568,417.799,1170.38,20.1224,150.334,1150.34,-187.796,352.315,1230.81,-175.792,219.51,1229.62,21.795,493.616,893.262,63.8487,463.14,699.535,39.1487,467.139,527.633,77.6884,417.439,263.489,29.8932,365.647,214.492,232.488,414.863,242.587,-97.6501,104.343,867.441,-156.147,138.682,684.522,-248.109,139.25,492.682,-333.022,186.2,294.287,-405.495,219.36,285.631,-222.228,204.395,189.401
36,0,18.5238,418.177,1170.42,20.303,150.915,1151.01,-186.199,354.352,1230.72,-175.15,221.411,1229.65,18.9049,494.282,891.268,60.6436,462.559,697.718,42.2761,466.334,524.649,93.2595,416.493,261.794,46.9177,365.12,211.269,249.809,412.676,247.241,-99.635,104.936,868.219,-158.868,138.792,685.281,-253.996,138.945,494.75,-342.781,185.417,298.052,-415.418,218.462,291.328,-235.646,204.037,189.274
37,0,20.6063,418.581,1170.01,20.6548,151.562,1151.4,-184.465,356.515,1230.19,-174.407,223.374,1229.23,16.0114,494.959,888.723,58.1038,462.03,695.726,45.1959,465.593,521.781,106.477,415.445,260.429,61.2148,364.552,208.859,264.372,410.299,251.124,-100.914,105.569,868.561,-160.641,138.922,685.514,-259.187,138.602,496.469,-352.169,184.549,301.736,-424.974,217.49,297.031,-249.047,203.671,189.072
38,0,22.7699,419.017,1169.15,21.169,152.282,1151.45,-182.632,358.765,1229.22,-173.576,225.368,1228.36,13.3534,495.587,885.759,56.3674,461.533,693.634,47.9033,464.911,519.051,117.086,414.291,259.22,72.4879,363.924,207.098,275.909,407.774,253.775,-101.454,106.252,868.404,-161.433,139.067,685.162,-263.642,138.216,497.813,-361.132,183.588,305.334,-434.085,216.436,302.754,-262.439,203.293,188.768
39,0,24.9775,419.495,1167.88,21.8326,153.079,1151.14,-180.743,361.06,1227.84,-172.674,227.363,1227.02,11.1878,496.102,882.538,55.5334,461.05,691.51,50.3897,464.289,516.472,124.911,413.032,258.017,80.5381,363.226,205.835,284.237,405.128,254.816,-101.231,106.991,867.691,-161.217,139.22,684.178,-267.323,137.779,498.764,-369.609,182.527,308.853,-442.659,215.289,308.52,-275.835,202.901,188.349
40,0,27.191,420.027,1166.22,22.6282,153.958,1150.43,-178.846,363.353,1226.05,-171.717,229.326,1225.21,9.76695,496.451,879.236,55.6551,460.57,689.41,52.642,463.727,514.052,129.866,411.677,256.709,85.2785,362.462,204.939,289.281,402.388,254.009,-100.228,107.788,866.383,-159.973,139.369,682.532,-270.188,137.283,499.321,-377.53,181.362,312.31,-450.59,214.04,314.369,-289.25,202.498,187.82
41,0,29.3719,420.626,1164.22,23.5343,154.918,1149.29,-176.991,365.592,1223.88,-170.727,231.227,1222.95,9.31245,496.598,876.037,56.7357,460.089,687.379,54.6435,463.231,511.792,131.962,410.242,255.226,86.7407,361.643,204.304,291.081,399.585,251.294,-98.4359,108.641,864.456,-157.692,139.503,680.207,-272.198,136.719,499.493,-384.818,180.089,315.734,-457.764,212.681,320.345,-302.695,202.092,187.212
42,0,31.4828,421.305,1161.92,24.5262,155.96,1147.73,-175.225,367.729,1221.38,-169.724,233.037,1220.26,9.9874,496.536,873.11,58.7268,459.612,685.445,56.3731,462.808,509.693,131.307,408.751,253.548,85.0735,360.788,203.852,289.799,396.762,246.802,-95.8526,109.543,861.909,-154.372,139.605,677.212,-273.314,136.083,499.303,-391.395,178.712,319.165,-464.062,211.208,326.499,-316.166,201.689,186.584
43,0,33.4883,422.074,1159.39,25.577,157.079,1145.73,-173.597,369.715,1218.58,-168.73,234.732,1217.18,11.8717,496.288,870.593,61.5297,459.151,683.623,57.8051,462.469,507.749,128.093,407.237,251.696,80.5322,359.922,203.532,285.705,393.978,240.848,-92.4866,110.481,858.766,-150.028,139.662,673.576,-273.502,135.366,498.792,-397.179,177.235,322.649,-469.365,209.623,332.882,-329.632,201.298,186.026
44,0,35.3558,422.945,1156.67,26.6581,158.267,1143.32,-172.149,371.51,1215.54,-167.767,236.292,1213.74,14.9437,495.907,868.582,64.9996,458.728,681.911,58.9091,462.225,505.951,122.59,405.736,249.725,73.4602,359.075,203.313,279.16,391.305,233.881,-88.3574,111.438,855.078,-144.684,139.658,669.354,-272.733,134.567,498.01,-402.089,175.673,326.242,-473.566,207.937,339.54,-343.024,200.924,185.657
45,0,37.0563,423.921,1153.85,27.7405,159.514,1140.54,-170.916,373.08,1212.3,-166.855,237.701,1210,19.0716,495.47,867.114,68.9525,458.37,680.296,59.6494,462.088,504.289,115.118,404.289,247.709,64.2638,358.274,203.179,270.587,388.82,226.432,-83.4987,112.393,850.919,-138.379,139.58,664.625,-270.985,133.684,497.019,-406.049,174.043,329.997,-476.573,206.17,346.506,-356.216,200.561,185.612
46,0,38.5652,425.005,1150.98,28.7962,160.805,1137.42,-169.925,374.4,1208.94,-166.015,238.949,1206.02,24.017,495.073,866.167,73.1749,458.11,678.753,59.9851,462.065,502.746,106.032,402.937,245.733,53.3831,357.545,203.123,260.437,386.597,219.042,-77.9604,113.323,846.389,-131.166,139.418,659.489,-268.246,132.723,495.892,-408.988,172.37,333.966,-478.317,204.354,353.796,-369.022,200.194,186.037
47,0,39.8625,426.195,1148.11,29.7986,162.124,1134.02,-169.194,375.46,1205.52,-165.263,240.032,1201.87,29.4511,494.812,865.656,77.4343,457.981,677.248,59.8704,462.166,501.307,95.6948,401.716,243.876,41.2619,356.908,203.142,249.147,384.695,212.188,-71.811,114.202,841.607,-123.107,139.167,654.069,-264.513,131.689,494.706,-410.845,170.687,338.192,-478.758,202.533,361.4,-381.185,199.789,187.068
48,0,40.9331,427.485,1145.32,30.724,163.454,1130.43,-168.731,376.258,1202.09,-164.613,240.952,1197.63,34.9812,494.778,865.45,81.4921,458.012,675.746,59.256,462.392,499.951,84.4557,400.656,242.201,28.3199,356.375,203.23,237.118,383.15,206.236,-65.1382,115.008,836.705,-114.278,138.824,648.501,-259.796,130.598,493.539,-411.571,169.028,342.701,-477.888,200.759,369.282,-392.382,199.301,188.816
49,0,41.7669,428.862,1142.63,31.5521,164.777,1126.71,-168.532,376.808,1198.74,-164.08,241.715,1193.38,40.1866,495.04,865.382,85.1149,458.229,674.21,58.0905,462.741,498.659,72.6322,399.777,240.751,14.9296,355.948,203.382,224.682,381.97,201.405,-58.0481,115.72,831.821,-104.759,138.395,642.932,-254.115,129.467,492.468,-411.128,167.432,347.502,-475.732,199.09,377.375,-402.235,198.672,191.353
50,0,42.3588,430.311,1140.11,32.2662,166.074,1122.96,-168.585,377.131,1195.51,-163.67,242.335,1189.19,44.6577,495.637,865.275,88.087,458.65,672.609,56.3228,463.206,497.412,60.4952,399.087,239.544,1.39993,355.624,203.584,212.096,381.136,197.766,-50.6629,116.321,827.093,-94.6357,137.889,637.513,-247.502,128.321,491.564,-409.491,165.937,352.579,-472.346,197.586,385.581,-410.328,197.839,194.698
51,0,42.7082,431.817,1137.78,32.8542,167.329,1119.27,-168.871,377.261,1192.48,-163.391,242.825,1185.15,48.0338,496.576,864.963,90.22,459.279,670.92,53.905,463.774,496.192,48.2604,398.581,238.575,-12.0328,355.387,203.824,199.54,380.602,195.253,-43.1157,116.803,822.652,-83.9976,137.325,632.392,-240.003,127.187,490.89,-406.65,164.579,357.889,-467.813,196.301,393.771,-416.243,196.744,198.808
52,0,42.8186,433.357,1135.67,33.3078,168.528,1115.72,-169.364,377.236,1189.7,-163.245,243.204,1181.33,50.0357,497.831,864.316,91.3613,460.11,669.132,50.7952,464.426,494.986,36.0855,398.246,237.824,-25.2064,355.221,204.085,187.122,380.308,193.701,-35.5446,117.163,818.612,-72.9318,136.724,627.712,-231.668,126.096,490.494,-402.608,163.39,363.361,-462.237,195.279,401.793,-419.589,195.349,203.581
53,0,42.6975,434.911,1133.8,33.6229,169.66,1112.41,-170.032,377.098,1187.22,-163.232,243.49,1177.8,50.4888,499.345,863.253,91.3994,461.124,667.247,46.9604,465.141,493.788,24.0721,398.056,237.254,-38.0282,355.103,204.354,174.889,380.187,192.888,-28.0843,117.404,815.071,-61.5233,136.113,623.599,-222.561,125.082,490.414,-397.382,162.391,368.897,-455.733,194.547,409.476,-420.038,193.644,208.859
54,0,42.355,436.459,1132.18,33.7993,170.717,1109.41,-170.843,376.89,1185.1,-163.35,243.705,1174.64,49.3328,501.036,861.756,90.2666,462.29,665.279,42.3791,465.894,492.596,12.2717,397.982,236.827,-50.4657,355.011,204.62,162.851,380.172,192.575,-20.858,117.538,812.105,-49.8524,135.523,620.164,-212.749,124.177,490.669,-390.997,161.597,374.376,-448.419,194.111,416.633,-417.359,191.659,214.44
55,0,41.8042,437.978,1130.82,33.8397,171.694,1106.8,-171.765,376.651,1183.35,-163.594,243.864,1171.89,46.6208,502.812,859.87,87.9393,463.566,663.26,37.0428,466.658,491.416,0.694601,397.991,236.504,-62.5338,354.926,204.876,150.986,380.204,192.541,-13.9696,117.581,809.766,-37.9946,134.987,617.497,-202.304,123.413,491.264,-383.492,161.01,379.657,-440.408,193.956,423.076,-411.438,189.465,220.098
56,0,41.0598,439.449,1129.73,33.7498,172.591,1104.63,-172.767,376.417,1182.03,-163.956,243.987,1169.61,42.5049,504.573,857.694,84.4342,464.902,661.228,30.957,467.407,490.264,-10.68,398.051,236.253,-74.2813,354.834,205.123,139.262,380.237,192.608,-7.49637,117.551,808.086,-26.0204,134.538,615.667,-191.3,122.815,492.187,-374.91,160.62,384.583,-431.796,194.042,428.618,-402.293,187.172,225.602
57,0,40.1376,440.854,1128.9,33.5375,173.407,1102.95,-173.822,376.214,1181.14,-164.429,244.085,1167.83,37.2138,506.227,855.37,79.8039,466.242,659.235,24.1412,468.115,489.16,-21.8934,398.133,236.053,-85.7775,354.728,205.369,127.638,380.24,192.651,-1.48475,117.47,807.079,-13.9963,134.205,614.718,-179.813,122.404,493.412,-365.304,160.409,388.994,-422.662,194.314,433.082,-390.062,184.919,230.733
58,0,39.0546,442.178,1128.33,33.2125,174.147,1101.79,-174.908,376.063,1180.7,-165.002,244.17,1166.58,31.0246,507.69,853.057,74.1294,467.532,657.333,16.6274,468.76,488.129,-32.998,398.214,235.894,-97.1004,354.607,205.627,116.079,380.195,192.599,4.05174,117.358,806.743,-1.98647,134.015,614.671,-167.916,122.19,494.899,-354.727,160.35,392.731,-413.059,194.701,436.309,-374.994,182.855,235.304
59,0,37.8278,443.407,1128,32.7857,174.815,1101.17,-176.008,375.973,1180.7,-165.664,244.249,1165.88,24.232,508.902,850.917,67.5123,468.717,655.578,8.45866,469.322,487.203,-44.0491,398.278,235.778,-108.327,354.477,205.917,104.551,380.095,192.429,9.13146,117.232,807.066,9.94565,133.99,615.528,-155.679,122.176,496.597,-343.233,160.41,395.646,-403.011,195.132,438.164,-357.416,181.116,239.175
60,0,36.4741,444.531,1127.92,32.2695,175.416,1101.08,-177.11,375.945,1181.15,-166.402,244.324,1165.72,17.1195,509.82,849.091,60.0668,469.75,654.022,-0.313483,469.785,486.414,-55.0985,398.316,235.717,-119.525,354.347,206.264,93.0267,379.943,192.152,13.8006,117.107,808.025,21.7351,134.142,617.265,-143.168,122.356,498.447,-330.876,160.554,397.607,-392.517,195.536,438.539,-337.698,179.81,242.257
61,0,35.0105,445.541,1128.07,31.677,175.955,1101.53,-178.207,375.973,1182.02,-167.203,244.397,1166.1,9.93568,510.424,847.687,51.9113,470.592,652.711,-9.63163,470.138,485.794,-66.1909,398.323,235.73,-130.752,354.231,206.696,81.4832,379.744,191.799,18.1268,116.991,809.595,33.3139,134.475,619.845,-130.447,122.714,500.381,-317.705,160.75,398.509,-381.551,195.854,437.359,-316.224,178.994,244.515
62,0,33.4531,446.433,1128.43,31.0223,176.438,1102.48,-179.294,376.042,1183.29,-168.054,244.464,1167,2.87631,510.716,846.771,43.1619,471.215,651.683,-19.4351,470.372,485.374,-77.3606,398.301,235.843,-142.049,354.142,207.241,69.9019,379.509,191.409,22.1906,116.89,811.747,44.6097,134.986,623.209,-117.574,123.227,502.331,-303.762,160.967,398.277,-370.063,196.048,434.583,-293.356,178.669,245.964
63,0,31.818,447.203,1129.01,30.3206,176.866,1103.92,-180.371,376.134,1184.93,-168.94,244.519,1168.39,-3.92513,510.713,846.364,33.9271,471.601,650.964,-29.6625,470.486,485.183,-88.6318,398.254,236.081,-153.442,354.09,207.928,58.2668,379.243,191.019,26.0765,116.804,814.448,55.5453,135.662,627.285,-104.603,123.864,504.225,-289.081,161.181,396.871,-357.984,196.097,430.207,-269.415,178.778,246.663
64,0,30.1203,447.851,1129.77,29.5877,177.244,1105.79,-181.438,376.229,1186.9,-169.845,244.555,1170.25,-10.3993,510.444,846.447,24.304,471.746,650.571,-40.2533,470.477,485.243,-100.018,398.186,236.472,-164.945,354.081,208.784,46.5638,378.955,190.658,29.8635,116.731,817.664,66.0388,136.48,631.987,-91.5835,124.592,505.996,-273.688,161.377,394.287,-345.235,196.008,424.263,-244.664,179.219,246.699
65,0,28.3752,448.379,1130.71,28.841,177.573,1108.07,-182.496,376.305,1189.16,-170.754,244.564,1172.52,-16.5355,509.947,846.969,14.3766,471.658,650.509,-51.1492,470.35,485.573,-111.523,398.1,237.039,-176.558,354.115,209.834,34.7806,378.646,190.343,33.617,116.666,821.357,76.0048,137.412,637.219,-78.5652,125.376,507.582,-257.599,161.547,390.558,-331.726,195.804,416.824,-219.303,179.856,246.175
66,0,26.5975,448.79,1131.81,28.0988,177.854,1110.7,-183.544,376.339,1191.67,-171.649,244.535,1175.15,-22.3712,509.262,847.861,4.21557,471.352,650.776,-62.2951,470.108,486.185,-123.145,397.997,237.802,-188.275,354.184,211.101,22.9059,378.32,190.08,37.3826,116.601,825.485,85.3559,138.423,642.876,-65.5944,126.179,508.929,-240.824,161.693,385.754,-317.367,195.528,407.995,-193.475,180.549,245.201
67,0,24.8023,449.09,1133.05,27.3804,178.089,1113.65,-184.579,376.312,1194.38,-172.514,244.46,1178.1,-27.977,508.425,849.041,-6.12012,470.854,651.36,-73.6388,469.759,487.087,-134.874,397.877,238.776,-200.083,354.276,212.606,10.93,377.976,189.865,41.1809,116.528,830.001,94.0058,139.474,648.845,-52.717,126.97,509.994,-223.368,161.823,379.979,-302.073,195.231,397.918,-167.271,181.169,243.879
68,0,23.005,449.288,1134.41,26.7066,178.278,1116.84,-185.598,376.208,1197.24,-173.331,244.328,1181.31,-33.4411,507.47,850.432,-16.581,470.192,652.243,-85.1307,469.311,488.277,-146.696,397.733,239.974,-211.963,354.372,214.365,-1.15546,377.616,189.686,45.0069,116.44,834.848,101.872,140.527,655.012,-39.9797,127.719,510.745,-205.236,161.948,373.365,-285.773,194.969,386.767,-140.747,181.618,242.301
69,0,21.2213,449.393,1135.88,26.0984,178.425,1120.25,-186.591,376.013,1200.21,-174.082,244.132,1184.71,-38.8534,506.424,851.963,-27.1238,469.4,653.406,-96.7227,468.772,489.754,-158.594,397.559,241.402,-223.897,354.449,216.392,-13.3573,377.238,189.53,48.83,116.326,839.965,108.878,141.541,661.259,-27.43,128.404,511.168,-186.436,162.087,366.067,-268.414,194.796,374.742,-113.935,181.845,240.541
70,0,19.4681,449.416,1137.43,25.5778,178.531,1123.82,-187.548,375.717,1203.25,-174.749,243.862,1188.25,-44.2918,505.307,853.579,-37.7078,468.509,654.822,-108.368,468.151,491.506,-170.55,397.345,243.064,-235.863,354.484,218.7,-25.6805,376.845,189.381,52.5976,116.18,845.279,114.959,142.48,667.469,-15.1177,129.006,511.26,-166.987,162.256,358.261,-249.97,194.757,362.066,-86.8597,181.843,238.663
71,0,17.7632,449.367,1139.05,25.1663,178.6,1127.5,-188.454,375.313,1206.32,-175.315,243.513,1191.87,-49.8124,504.134,855.238,-48.2913,467.55,656.467,-120.017,467.456,493.519,-182.544,397.081,244.959,-247.841,354.454,221.296,-38.1281,376.438,189.227,56.2399,115.991,850.71,120.064,143.314,673.531,-3.09423,129.516,511.034,-146.925,162.472,350.133,-230.447,194.886,348.976,-59.5529,181.647,236.723
72,0,16.1253,449.258,1140.71,24.8851,178.637,1131.25,-189.293,374.797,1209.38,-175.762,243.079,1195.5,-55.4428,502.916,856.915,-58.8287,466.55,658.311,-131.623,466.697,495.776,-194.555,396.758,247.085,-259.81,354.34,224.187,-50.7006,376.018,189.057,59.6765,115.749,856.171,124.16,144.015,679.34,8.58643,129.928,510.513,-126.308,162.751,341.871,-209.891,195.205,335.721,-32.0644,181.32,234.777
73,0,14.5741,449.101,1142.41,24.7541,178.648,1135.02,-190.046,374.169,1212.39,-176.075,242.554,1199.09,-61.18,501.663,858.596,-69.2676,465.532,660.328,-143.134,465.882,498.252,-206.562,396.368,249.436,-271.752,354.129,227.372,-63.3964,375.586,188.867,62.8238,115.445,861.569,127.231,144.567,684.797,19.8687,130.244,509.733,-105.219,163.102,333.662,-188.389,195.724,322.544,-4.47193,180.934,232.887
74,0,13.1301,448.905,1144.11,24.7911,178.638,1138.76,-190.694,373.429,1215.33,-176.239,241.935,1202.57,-66.9922,500.382,860.273,-79.5478,464.511,662.485,-154.495,465.022,500.923,-218.543,395.909,252.007,-283.645,353.814,230.85,-76.211,375.144,188.655,65.6019,115.067,866.807,129.288,144.959,689.819,30.6959,130.471,508.734,-83.7738,163.534,325.681,-166.076,196.443,309.68,23.1131,180.558,231.129
75,0,11.8144,448.678,1145.8,25.0116,178.614,1142.42,-191.217,372.578,1218.16,-176.242,241.22,1205.91,-72.823,499.084,861.944,-89.6003,463.498,664.751,-165.65,464.124,503.758,-230.476,395.38,254.788,-295.473,353.395,234.614,-89.1377,374.689,188.427,67.9422,114.607,871.786,130.36,145.189,694.332,41.0111,130.62,507.562,-62.1208,164.051,318.082,-143.129,197.351,297.344,50.5421,180.237,229.595
76,0,10.6477,448.427,1147.47,25.4276,178.58,1145.96,-191.596,371.62,1220.85,-176.074,240.407,1209.05,-78.5977,497.78,863.61,-99.3478,462.501,667.092,-176.541,463.2,506.723,-242.34,394.786,257.768,-307.217,352.883,238.652,-102.168,374.221,188.189,69.7933,114.056,876.409,130.503,145.264,698.279,50.7585,130.706,506.259,-40.4408,164.653,310.996,-119.774,198.434,285.721,77.63,179.992,228.387
77,0,9.65035,448.153,1149.1,26.0477,178.54,1149.34,-191.813,370.556,1223.37,-175.728,239.495,1211.93,-84.2304,496.483,865.267,-108.706,461.521,669.469,-187.107,462.259,509.784,-254.111,394.139,260.933,-318.861,352.294,242.95,-115.29,373.738,187.952,71.1259,113.41,880.583,129.797,145.197,701.619,59.885,130.747,504.867,-18.9446,165.339,304.523,-96.2731,199.674,274.961,104.159,179.815,227.612
78,0,8.84105,447.858,1150.67,26.8762,178.497,1152.51,-191.855,369.391,1225.71,-175.199,238.485,1214.54,-89.631,495.205,866.909,-117.586,460.559,671.841,-197.286,461.315,512.899,-265.766,393.454,264.265,-330.39,351.651,247.489,-128.494,373.235,187.727,71.9364,112.67,884.227,128.341,145.008,704.326,68.3416,130.764,503.418,2.13065,166.104,298.727,-72.9266,201.049,265.171,129.885,179.679,227.369
79,0,8.23628,447.538,1152.15,27.9131,178.45,1155.42,-191.711,368.128,1227.81,-174.486,237.378,1216.81,-94.7109,493.959,868.522,-125.897,459.613,674.16,-207.016,460.379,516.028,-277.282,392.751,267.746,-341.789,350.983,252.248,-141.767,372.714,187.525,72.2479,111.844,887.267,126.257,144.724,706.39,76.0847,130.777,501.937,22.5289,166.944,293.635,-50.0603,202.537,256.413,154.546,179.556,227.729
80,0,7.8494,447.188,1153.53,29.1539,178.395,1158.03,-191.373,366.772,1229.67,-173.594,236.176,1218.74,-99.3875,492.755,870.088,-133.548,458.686,676.377,-216.236,459.465,519.127,-288.632,392.053,271.352,-353.043,350.323,257.201,-155.097,372.172,187.353,72.1104,110.948,889.647,123.679,144.374,707.818,83.0778,130.809,500.436,41.9828,167.853,289.239,-28.0185,204.115,248.705,177.873,179.423,228.721
81,0,7.68979,446.797,1154.78,30.59,178.325,1160.31,-190.84,365.328,1231.24,-172.528,234.884,1220.28,-103.587,491.602,871.579,-140.453,457.777,678.435,-224.887,458.589,522.148,-299.79,391.386,275.056,-364.134,349.703,262.324,-168.473,371.613,187.214,71.5986,110.006,891.328,120.753,143.99,708.63,89.2926,130.879,498.919,60.2232,168.827,285.496,-7.15239,205.757,242.02,199.598,179.283,230.31
82,0,7.76207,446.355,1155.87,32.2082,178.231,1162.2,-190.115,363.804,1232.49,-171.3,233.506,1221.43,-107.244,490.501,872.957,-146.533,456.893,680.276,-232.91,457.765,525.047,-310.724,390.777,278.831,-375.043,349.158,267.59,-181.885,371.04,187.105,70.8071,109.05,892.293,117.632,143.606,708.856,94.7096,131.007,497.38,76.9887,169.86,282.333,12.1911,207.435,236.301,219.466,179.168,232.391
83,0,8.06545,445.851,1156.77,33.9915,178.1,1163.69,-189.206,362.207,1233.39,-169.925,232.05,1222.17,-110.305,489.455,874.177,-151.718,456.043,681.836,-240.251,457.011,527.776,-321.401,390.252,282.647,-385.74,348.719,272.977,-195.324,370.459,187.018,69.8457,108.118,892.545,114.466,143.251,708.54,99.3189,131.21,495.804,92.0361,170.948,279.655,29.6816,209.118,231.458,237.236,179.137,234.784
84,0,8.59326,445.269,1157.45,35.9193,177.916,1164.75,-188.128,360.55,1233.92,-168.422,230.523,1222.49,-112.723,488.459,875.187,-155.948,455.239,683.053,-246.858,456.342,530.293,-331.783,389.836,286.476,-396.19,348.414,278.464,-208.782,369.877,186.937,68.8318,107.251,892.113,111.4,142.954,707.731,103.12,131.5,494.173,105.15,172.086,277.356,45.018,210.774,227.387,252.693,179.271,237.244
85,0,9.3327,444.599,1157.88,37.9679,177.663,1165.35,-186.9,358.845,1234.03,-166.814,228.936,1222.4,-114.462,487.508,875.926,-159.176,454.498,683.865,-252.684,455.776,532.556,-341.826,389.554,290.294,-406.343,348.267,284.036,-222.254,369.299,186.843,67.8829,106.491,891.046,108.567,142.736,706.483,106.122,131.886,492.465,116.15,173.267,275.322,57.9404,212.371,223.974,265.65,179.66,239.477
86,0,10.2648,443.828,1158.03,40.1109,177.323,1165.49,-185.546,357.107,1233.71,-165.126,227.3,1221.89,-115.49,486.593,876.328,-161.37,453.839,684.213,-257.682,455.329,534.53,-351.483,389.425,294.08,-416.14,348.298,289.687,-235.735,368.731,186.716,67.1089,105.869,889.415,106.078,142.614,704.853,108.341,132.372,490.661,124.902,174.486,273.445,68.2424,213.877,221.11,275.956,180.381,241.176
87,0,11.3648,442.947,1157.86,42.3196,176.877,1165.17,-184.095,355.356,1232.93,-163.387,225.629,1220.99,-115.784,485.709,876.328,-162.51,453.282,684.046,-261.815,455.015,536.186,-360.697,389.467,297.826,-425.506,348.521,295.42,-249.22,368.176,186.538,66.604,105.412,887.306,104.025,142.593,702.901,109.803,132.953,488.743,131.32,175.731,271.63,75.781,215.262,218.693,283.5,181.491,242.05
88,0,12.6026,441.952,1157.35,44.5635,176.308,1164.4,-182.581,353.609,1231.69,-161.628,223.937,1219.72,-115.325,484.85,875.863,-162.589,452.848,683.324,-265.046,454.849,537.505,-369.407,389.693,301.532,-434.355,348.948,301.249,-262.704,367.636,186.303,66.4399,105.126,884.819,102.47,142.668,700.684,110.538,133.621,486.702,135.371,176.992,269.802,80.4854,216.501,216.639,288.226,183.009,241.869
89,0,13.9437,440.841,1156.48,46.8109,175.603,1163.19,-181.037,351.888,1229.97,-159.881,222.24,1218.1,-114.102,484.014,874.876,-161.614,452.557,682.02,-267.344,454.844,538.476,-377.549,390.113,305.211,-442.589,349.583,307.201,-276.172,367.108,186.017,66.6607,105.004,882.061,101.442,142.827,698.256,110.581,134.358,484.536,137.078,178.251,267.908,82.3624,217.575,214.884,290.137,184.913,240.495
90,0,15.3503,439.615,1155.24,49.0291,174.751,1161.59,-179.5,350.212,1227.79,-158.178,220.552,1216.16,-112.114,483.203,873.329,-159.604,452.426,680.124,-268.684,455.01,539.101,-385.052,390.731,308.892,-450.105,350.425,313.31,-289.602,366.592,185.707,67.2787,105.017,879.136,100.943,143.044,695.67,109.971,135.141,482.251,136.52,179.491,265.922,81.4978,218.47,213.38,289.31,187.141,237.904
91,0,16.7824,438.284,1153.63,51.1851,173.745,1159.61,-178.009,348.599,1225.17,-156.551,218.89,1213.95,-109.369,482.422,871.2,-156.591,452.468,677.646,-269.047,455.355,539.393,-391.846,391.548,312.616,-456.796,351.468,319.621,-302.952,366.087,185.426,68.2729,105.121,876.146,100.937,143.287,692.973,108.747,135.939,479.862,133.825,180.688,263.844,78.0542,219.182,212.097,285.897,189.591,234.199
92,0,18.1997,436.858,1151.65,53.2463,172.583,1157.33,-176.599,347.067,1222.13,-155.03,217.269,1211.51,-105.89,481.683,868.495,-152.614,452.691,674.617,-268.422,455.883,539.376,-397.86,392.556,316.435,-462.56,352.697,326.18,-316.154,365.598,185.25,69.5892,105.256,873.177,101.36,143.515,690.205,106.947,136.72,477.39,129.167,181.817,261.691,72.2628,219.712,211.019,280.131,192.141,229.597
93,0,19.5626,435.354,1149.34,55.1804,171.27,1154.78,-175.305,345.629,1218.72,-153.645,215.703,1208.89,-101.714,480.999,865.247,-147.725,453.096,671.088,-266.802,456.597,539.085,-403.029,393.742,320.412,-467.304,354.089,333.031,-329.107,365.135,185.282,71.1434,105.353,870.3,102.12,143.684,687.403,104.608,137.445,474.863,122.757,182.853,259.503,64.4115,220.067,210.136,272.309,194.652,224.403
94,0,20.8338,433.791,1146.71,56.9568,169.814,1152.03,-174.156,344.293,1215,-152.42,214.203,1206.14,-96.8963,480.384,861.522,-141.982,453.681,667.133,-264.193,457.494,538.565,-407.291,395.086,324.61,-470.951,355.611,340.212,-341.672,364.721,185.641,72.8252,105.339,867.565,103.098,143.748,684.596,101.759,138.076,472.312,114.832,183.768,257.324,54.8281,220.259,209.442,262.783,196.99,218.972
95,0,21.9802,432.191,1143.83,58.5468,168.231,1149.14,-173.18,343.064,1211.03,-151.378,212.779,1203.32,-91.5133,479.851,857.417,-135.45,454.435,662.846,-260.606,458.568,537.871,-410.592,396.561,329.088,-473.443,357.221,347.742,-353.668,364.387,186.452,74.5044,105.147,865.004,104.16,143.662,681.807,98.4283,138.578,469.767,105.643,184.539,255.207,43.8614,220.304,208.933,251.927,199.037,213.66
96,0,22.9731,430.578,1140.75,59.9244,166.54,1146.18,-172.395,341.941,1206.9,-150.535,211.437,1200.47,-85.6606,479.413,853.051,-128.199,455.342,658.335,-256.065,459.808,537.06,-412.888,398.133,333.896,-474.747,358.866,355.619,-364.872,364.176,187.839,76.0386,104.718,862.625,105.157,143.388,679.054,94.6338,138.92,467.259,95.4457,185.145,253.2,31.8609,220.22,208.597,240.115,200.704,208.781
97,0,23.7903,428.974,1137.54,61.0668,164.763,1143.22,-171.818,340.919,1202.68,-149.905,210.182,1197.67,-79.452,479.075,848.564,-120.306,456.381,653.722,-250.604,461.199,536.195,-414.144,399.761,339.066,-474.855,360.486,363.813,-375.028,364.137,189.906,77.2812,104.008,860.422,105.937,142.895,676.35,90.3882,139.077,464.816,84.4849,185.571,251.345,19.1582,220.025,208.422,227.691,201.934,204.571
98,0,24.4157,427.401,1134.27,61.9553,162.925,1140.31,-171.455,339.989,1198.48,-149.495,209.016,1194.96,-73.0166,478.837,844.105,-111.845,457.53,649.134,-244.263,462.721,535.336,-414.334,401.402,344.606,-473.786,362.018,372.263,-383.857,364.328,192.723,78.0899,102.994,858.373,106.349,142.165,673.703,85.6972,139.035,462.46,72.9871,185.808,249.673,6.0499,219.739,208.388,214.949,202.713,201.171
99,0,24.8401,425.877,1131.01,62.5759,161.053,1137.51,-171.308,339.138,1194.37,-149.309,207.935,1192.38,-66.4922,478.691,839.821,-102.895,458.76,644.701,-237.098,464.348,534.546,-413.443,403.01,350.494,-471.581,363.399,380.876,-391.074,364.804,196.315,78.3349,101.674,856.453,106.254,141.191,671.12,80.5612,138.789,460.211,61.151,185.857,248.203,-7.21407,219.381,208.472,202.118,203.06,198.619
100,0,25.061,424.418,1127.86,62.9196,159.172,1134.88,-171.372,338.352,1190.45,-149.343,206.937,1190,-60.0185,478.626,835.846,-93.5316,460.043,640.552,-229.169,466.052,533.879,-411.468,404.544,356.678,-468.305,364.573,389.527,-396.407,365.615,200.655,77.9068,100.065,854.631,105.527,139.984,668.608,74.9763,138.346,458.083,49.1418,185.727,246.94,-20.4381,218.97,208.649,189.36,203.028,196.864
101,0,25.0822,423.034,1124.89,62.9825,157.307,1132.46,-171.636,337.615,1186.8,-149.592,206.016,1187.84,-53.7279,478.621,832.297,-83.8295,461.351,636.802,-220.547,467.799,533.384,-408.412,405.965,363.073,-464.039,365.497,398.067,-399.618,366.796,205.658,76.7227,98.2075,852.88,104.065,138.566,666.171,68.9362,137.724,456.087,37.0888,185.433,245.879,-33.4834,218.525,208.894,176.772,202.691,195.789
102,0,24.9127,421.732,1122.17,62.7666,155.479,1130.28,-172.087,336.914,1183.5,-150.046,205.164,1185.95,-47.7367,478.655,829.263,-73.8596,462.655,633.559,-211.309,469.554,533.103,-404.292,407.243,369.566,-458.874,366.147,406.324,-400.516,368.359,211.187,74.7311,96.1558,851.18,101.792,136.975,663.818,62.4344,136.95,454.231,25.0843,184.998,245.004,-46.2654,218.062,209.183,164.396,202.136,195.235
103,0,24.5661,420.512,1119.76,62.2788,153.705,1128.38,-172.705,336.236,1180.61,-150.69,204.372,1184.35,-42.1365,478.708,826.806,-63.6893,463.93,630.912,-201.54,471.28,533.07,-399.132,408.361,376.015,-452.907,366.521,414.114,-398.976,370.289,217.061,71.9148,93.9783,849.519,98.6565,135.26,661.561,55.4658,136.059,452.524,13.1859,184.452,244.294,-58.7482,217.599,209.495,152.23,201.45,195.034
104,0,24.0597,419.37,1117.73,61.5315,152,1126.77,-173.47,335.573,1178.18,-151.508,203.634,1183.07,-36.9876,478.761,824.963,-53.3821,465.151,628.93,-191.326,472.938,533.305,-392.969,409.312,382.264,-446.237,366.638,421.247,-394.94,372.54,223.067,68.2913,91.7509,847.899,94.6375,133.479,659.414,48.0285,135.093,450.972,1.4205,183.826,243.726,-70.9357,217.15,209.814,140.246,200.712,195.027
105,0,23.4126,418.3,1116.11,60.5415,150.374,1125.45,-174.36,334.917,1176.26,-152.482,202.94,1182.13,-32.3149,478.801,823.744,-42.9983,466.297,627.666,-180.759,474.492,533.824,-385.847,410.102,388.14,-438.954,366.544,427.537,-388.425,375.033,228.979,63.9114,89.5526,846.329,89.7389,131.694,657.395,40.125,134.095,449.582,-10.2105,183.153,243.276,-82.8619,216.727,210.13,128.4,199.989,195.087
106,0,22.6452,417.292,1114.93,59.3296,148.833,1124.44,-175.354,334.268,1174.87,-153.592,202.284,1181.52,-28.108,478.822,823.144,-32.5957,467.349,627.151,-169.931,475.91,534.63,-377.821,410.748,393.47,-431.141,366.298,432.806,-379.51,377.667,234.573,58.8547,87.4606,844.832,83.989,129.969,655.527,31.7634,133.108,448.362,-21.7249,182.464,242.926,-94.5801,216.339,210.441,116.643,199.327,195.123
107,0,21.778,416.334,1114.22,57.9197,147.379,1123.73,-176.43,333.628,1174.02,-154.817,201.661,1181.26,-24.3234,478.826,823.145,-22.2309,468.291,627.398,-158.934,477.161,535.715,-368.954,411.277,398.086,-422.864,365.972,436.893,-368.334,380.327,239.645,53.2243,85.5464,843.435,77.436,128.365,653.832,22.9575,132.174,447.324,-33.1536,181.788,242.661,-106.154,215.991,210.753,104.927,198.758,195.083
108,0,20.8308,415.418,1113.99,56.338,146.015,1123.3,-177.57,333.002,1173.7,-156.136,201.066,1181.35,-20.8922,478.82,823.721,-11.9606,469.113,628.401,-147.857,478.221,537.065,-359.311,411.721,401.831,-414.171,365.641,439.659,-355.079,382.896,244.022,47.1388,83.8712,842.171,70.1447,126.934,652.335,13.7273,131.327,446.478,-44.5347,181.15,242.477,-117.648,215.684,211.078,93.2115,198.294,194.948
109,0,19.8218,414.532,1114.22,54.6122,144.739,1123.14,-178.756,332.398,1173.92,-157.529,200.499,1181.78,-17.7279,478.817,824.841,-1.84309,469.803,630.137,-136.79,479.074,538.654,-348.963,412.113,404.567,-405.093,365.373,440.989,-339.956,385.276,247.575,40.7243,82.4838,841.074,62.1912,125.722,651.061,4.0985,130.595,445.838,-55.9075,180.568,242.377,-129.122,215.415,211.439,81.465,197.934,194.725
110,0,18.7677,413.672,1114.9,52.7705,143.551,1123.24,-179.974,331.826,1174.65,-158.977,199.96,1182.53,-14.738,478.835,826.478,8.06024,470.358,632.57,-125.815,479.709,540.446,-337.975,412.485,406.183,-395.637,365.221,440.796,-323.193,387.396,250.219,34.1052,81.4185,840.177,53.6595,124.758,650.035,-5.89759,129.998,445.417,-67.309,180.053,242.374,-140.627,215.179,211.864,69.663,197.67,194.435
111,0,17.6832,412.833,1116.02,50.8409,142.452,1123.58,-181.212,331.298,1175.85,-160.46,199.452,1183.59,-11.834,478.888,828.603,17.6842,470.773,635.649,-115.012,480.122,542.399,-326.408,412.865,406.596,-385.79,365.22,439.022,-305.02,389.227,251.92,27.3967,80.6937,839.507,44.6372,124.06,649.276,-16.2249,129.547,445.229,-78.7699,179.614,242.485,-152.199,214.967,212.39,57.7888,197.485,194.106
112,0,16.5811,412.017,1117.55,48.8504,141.444,1124.12,-182.458,330.824,1177.5,-161.96,198.979,1184.94,-8.94074,478.994,831.186,26.9594,471.05,639.313,-104.455,480.316,544.46,-314.312,413.272,405.753,-375.519,365.381,435.64,-285.659,390.782,252.687,20.6975,80.3122,839.086,35.2121,123.632,648.804,-26.8435,129.244,445.29,-90.3128,179.248,242.737,-163.863,214.768,213.057,45.8311,197.36,193.766
113,0,15.4728,411.229,1119.45,46.8246,140.53,1124.87,-183.704,330.415,1179.55,-163.461,198.548,1186.57,-6.00374,479.164,834.199,35.8116,471.19,643.489,-94.2079,480.301,546.571,-301.722,413.719,403.635,-364.77,365.691,430.656,-265.315,392.123,252.571,14.0853,80.2624,838.929,25.47,123.464,648.63,-37.7102,129.082,445.613,-101.951,178.953,243.159,-175.629,214.573,213.91,33.7825,197.275,193.438
114,0,14.3689,410.478,1121.69,44.7874,139.716,1125.79,-184.941,330.082,1181.97,-164.948,198.168,1188.45,-2.9931,479.405,837.611,44.1634,471.202,648.095,-84.3309,480.093,548.667,-288.66,414.209,400.253,-353.474,366.118,424.104,-244.169,393.345,251.655,7.6134,80.5194,839.044,15.4919,123.534,648.765,-48.7796,129.046,446.21,-113.688,178.719,243.781,-187.495,214.371,214.993,21.6384,197.21,193.135
115,0,13.2791,409.778,1124.24,42.7605,139.011,1126.87,-186.16,329.831,1184.69,-166.406,197.846,1190.55,0.0956286,479.719,841.386,51.9346,471.093,653.044,-74.8733,479.712,550.68,-275.126,414.739,395.653,-341.547,366.614,416.051,-222.372,394.571,250.046,1.31103,81.048,839.43,5.35316,123.811,649.213,-60.0051,129.117,447.091,-125.519,178.535,244.633,-199.45,214.153,216.352,9.39597,197.149,192.866
116,0,12.2135,409.144,1127.07,40.7636,138.423,1128.09,-187.355,329.671,1187.69,-167.82,197.594,1192.86,3.24337,480.105,845.485,59.0444,470.875,658.241,-65.8752,479.182,552.542,-261.104,415.3,389.907,-328.899,367.124,406.596,-200.039,395.929,247.867,-4.81523,81.8057,840.081,-4.87797,124.257,649.971,-71.3398,129.272,448.262,-137.43,178.387,245.743,-211.473,213.913,218.024,-2.94667,197.076,192.631
117,0,11.1826,408.591,1130.13,38.8144,137.962,1129.45,-188.514,329.606,1190.9,-169.179,197.421,1195.34,6.41185,480.556,849.86,65.4139,470.563,663.588,-57.3665,478.528,554.184,-246.561,415.88,383.117,-315.43,367.591,395.868,-177.252,397.539,245.251,-10.7773,82.7452,840.985,-15.1404,124.83,651.034,-82.7371,129.485,449.726,-149.404,178.262,247.131,-223.539,213.646,220.044,-15.3903,196.978,192.425
118,0,10.1979,408.138,1133.39,36.9285,137.64,1130.93,-189.629,329.641,1194.28,-170.47,197.338,1197.98,9.54905,481.064,854.46,70.9685,470.172,668.982,-49.3663,477.778,555.545,-231.451,416.464,375.411,-301.046,367.967,384.026,-154.064,399.492,242.333,-16.6003,83.8184,842.128,-25.3803,125.488,652.391,-94.1517,129.731,451.483,-161.416,178.146,248.813,-235.619,213.349,222.437,-27.9349,196.845,192.242
119,0,9.27241,407.799,1136.81,35.1201,137.465,1132.52,-190.687,329.778,1197.79,-171.681,197.356,1200.73,12.595,481.617,859.224,75.6412,469.719,674.324,-41.8825,476.961,556.57,-215.72,417.04,366.94,-285.657,368.216,371.258,-130.498,401.842,239.246,-22.3166,84.9786,843.49,-35.5505,126.189,654.027,-105.54,129.986,453.525,-173.439,178.027,250.795,-247.685,213.023,225.216,-40.5793,196.672,192.074
120,0,8.4202,407.59,1140.36,33.4019,137.444,1134.21,-191.677,330.02,1201.38,-172.802,197.483,1203.58,15.487,482.205,864.086,79.3761,469.225,679.512,-34.9121,476.103,557.214,-199.312,417.599,357.878,-269.186,368.319,357.777,-106.56,404.588,236.117,-27.9589,86.1835,845.052,-45.6098,126.896,655.922,-116.861,130.228,455.839,-185.447,177.894,253.077,-259.706,212.666,228.386,-53.3215,196.454,191.914
121,0,7.65678,407.519,1143.99,31.7854,137.583,1135.99,-192.585,330.369,1205,-173.82,197.73,1206.5,18.1628,482.818,868.976,82.1316,468.706,684.453,-28.4413,475.231,557.445,-182.179,418.133,348.414,-251.58,368.277,343.817,-82.2494,407.68,233.071,-33.5553,87.3969,846.792,-55.5215,127.581,658.053,-128.074,130.443,458.41,-197.412,177.739,255.649,-271.656,212.279,231.94,-66.1582,196.193,191.756
122,0,6.99856,407.595,1147.66,30.2815,137.882,1137.84,-193.396,330.828,1208.6,-174.727,198.104,1209.44,20.563,483.449,873.817,83.8841,468.184,689.058,-22.4465,474.369,557.246,-164.285,418.64,338.753,-232.814,368.105,329.629,-57.5668,411.02,230.229,-39.1236,88.5902,848.687,-65.2521,128.219,660.392,-139.144,130.616,461.214,-209.307,177.555,258.494,-283.511,211.865,235.861,-79.0847,195.893,191.598
123,0,6.46237,407.82,1151.32,28.9004,138.341,1139.75,-194.096,331.398,1212.13,-175.512,198.613,1212.37,22.6315,484.093,878.526,84.6312,467.675,693.249,-16.8959,473.539,556.613,-145.621,419.121,329.105,-212.902,367.838,315.473,-32.5282,414.474,227.716,-44.6686,89.7426,850.711,-74.7696,128.796,662.908,-150.036,130.742,464.221,-221.111,177.339,261.587,-295.251,211.424,240.12,-92.0953,195.559,191.439
124,0,6.06482,408.193,1154.94,27.6519,138.954,1141.7,-194.67,332.082,1215.56,-176.166,199.261,1215.26,24.3142,484.751,883.017,84.3944,467.197,696.957,-11.7511,472.76,555.558,-126.211,419.578,319.681,-191.902,367.517,301.608,-7.17388,417.887,225.657,-50.1797,90.842,852.838,-84.0418,129.306,665.567,-160.717,130.817,467.399,-232.803,177.087,264.899,-306.859,210.957,244.682,-105.183,195.201,191.281
125,0,5.82153,408.708,1158.44,26.5454,139.712,1143.67,-195.104,332.886,1218.83,-176.683,200.052,1218.07,25.5582,485.429,887.201,83.2213,466.764,700.13,-6.96892,472.047,554.104,-106.12,420.017,310.683,-169.924,367.192,288.281,18.422,421.101,224.182,-55.6313,91.8839,855.038,-93.0351,129.75,668.331,-171.159,130.844,470.71,-244.365,176.8,268.395,-318.321,210.463,249.504,-118.338,194.827,191.129
126,0,5.74635,409.357,1161.79,25.5902,140.606,1145.63,-195.385,333.813,1221.89,-177.055,200.99,1220.75,26.3119,486.135,890.986,81.1869,466.387,702.728,-2.50454,471.413,552.288,-85.4605,420.443,302.293,-147.137,366.91,275.718,44.1447,423.976,223.421,-60.9832,92.8707,857.28,-101.713,130.137,671.157,-181.331,130.828,474.11,-255.784,176.477,272.038,-329.631,209.943,254.541,-131.552,194.448,190.986
127,0,5.85056,410.129,1164.93,24.7947,141.623,1147.55,-195.501,334.869,1224.72,-177.279,202.074,1223.26,26.5254,486.885,894.281,78.3937,466.075,704.729,1.68656,470.866,550.152,-64.3986,420.858,294.665,-123.767,366.716,264.112,69.8336,426.399,223.493,-66.1838,93.8113,859.525,-110.033,130.48,674,-191.206,130.777,477.555,-267.05,176.12,275.787,-340.781,209.397,259.742,-144.812,194.07,190.858
128,0,6.14215,411.011,1167.8,24.1669,142.75,1149.4,-195.443,336.061,1227.26,-177.351,203.304,1225.57,26.1545,487.693,897.001,74.9706,465.833,706.127,5.64587,470.411,547.749,-43.151,421.264,287.912,-100.099,366.64,253.612,95.2809,428.298,224.49,-71.1727,94.719,861.736,-117.95,130.798,676.807,-200.754,130.701,480.994,-278.153,175.732,279.603,-351.769,208.824,265.058,-158.109,193.701,190.75
129,0,6.62529,411.989,1170.34,23.7133,143.972,1151.14,-195.204,337.392,1229.47,-177.272,204.675,1227.61,25.166,488.576,899.065,71.0698,465.661,706.932,9.40964,470.05,545.131,-21.9846,421.658,282.102,-76.4735,366.704,244.318,120.232,429.641,226.459,-75.8844,95.6111,863.865,-125.412,131.108,679.522,-209.947,130.611,484.378,-289.087,175.311,283.445,-362.593,208.224,270.441,-171.429,193.343,190.661
130,0,7.29992,413.05,1172.51,23.4392,145.279,1152.73,-194.781,338.87,1231.31,-177.044,206.182,1229.36,23.5467,489.546,900.411,66.8629,465.558,707.168,13.0069,469.779,542.35,-1.20918,422.033,277.247,-53.2736,366.913,236.273,144.392,430.433,229.377,-80.2522,96.5071,865.865,-132.361,131.433,682.084,-218.754,130.516,487.653,-299.842,174.86,287.278,-373.251,207.596,275.847,-184.762,192.997,190.59
131,0,8.16149,414.181,1174.26,23.3472,146.66,1154.12,-194.175,340.496,1232.76,-176.671,207.817,1230.76,21.3116,490.605,900.991,62.5351,465.518,706.874,16.4581,469.595,539.458,18.8336,422.377,273.308,-30.9167,367.257,229.467,167.43,430.709,233.137,-84.2105,97.4278,867.679,-138.735,131.791,684.426,-227.14,130.425,490.767,-310.411,174.377,291.067,-383.738,206.94,281.239,-198.101,192.662,190.527
132,0,9.20095,415.371,1175.55,23.4375,148.105,1155.27,-193.393,342.272,1233.78,-176.163,209.571,1231.78,18.5142,491.749,900.786,58.2775,465.534,706.101,19.7743,469.491,536.5,37.7832,422.672,270.195,-9.83715,367.712,223.837,188.994,430.517,237.529,-87.6981,98.394,869.249,-144.467,132.199,686.477,-235.07,130.346,493.668,-320.781,173.859,294.783,-394.044,206.253,286.589,-211.439,192.334,190.458
133,0,10.4049,416.613,1176.35,23.7067,149.608,1156.14,-192.443,344.194,1234.34,-175.529,211.429,1232.38,15.2532,492.96,899.804,54.2794,465.598,704.905,22.9569,469.458,533.516,55.2772,422.898,267.775,9.53279,368.243,219.279,208.728,429.909,242.248,-90.6593,99.4254,870.513,-149.487,132.669,688.161,-242.504,130.284,496.306,-330.936,173.304,298.403,-404.153,205.536,291.876,-224.775,192.008,190.363
134,0,11.756,417.9,1176.64,24.1478,151.165,1156.69,-191.345,346.254,1234.43,-174.785,213.379,1232.52,11.6762,494.206,898.088,50.7193,465.701,703.352,25.9982,469.488,530.539,70.9688,423.031,265.882,26.7832,368.806,215.658,226.283,428.933,246.903,-93.0453,100.54,871.408,-153.725,133.209,689.402,-249.399,130.241,498.634,-340.851,172.706,301.913,-414.039,204.784,297.095,-238.117,191.678,190.217
135,0,13.2331,419.228,1176.41,24.7493,152.775,1156.87,-190.118,348.44,1234.04,-173.948,215.402,1232.19,7.9781,495.448,895.715,47.7555,465.835,701.508,28.8822,469.573,527.597,84.5451,423.046,264.339,41.5483,369.355,212.822,241.342,427.625,251.05,-94.8139,101.751,871.869,-157.111,133.824,690.124,-255.706,130.216,500.611,-350.495,172.061,305.306,-423.662,203.996,302.254,-251.473,191.341,189.995
136,0,14.812,420.598,1175.65,25.4954,154.434,1156.66,-188.79,350.732,1233.17,-173.036,217.48,1231.37,4.39231,496.642,892.796,45.5181,465.996,699.439,31.5859,469.709,524.71,95.7445,422.921,262.967,53.5269,369.843,210.616,253.64,426.014,254.237,-95.9293,103.07,871.835,-159.579,134.512,690.257,-261.374,130.208,502.203,-359.83,171.364,308.587,-432.969,203.167,307.373,-264.86,190.993,189.678
137,0,16.4662,422.009,1174.41,26.3656,156.144,1156.02,-187.393,353.106,1231.82,-172.072,219.593,1230.05,1.1759,497.744,889.468,44.1009,466.184,697.209,34.0809,469.891,521.895,104.372,422.638,261.607,62.5008,370.228,208.893,262.98,424.126,256.057,-96.3621,104.502,871.251,-161.069,135.266,689.738,-266.35,130.212,503.386,-368.803,170.61,311.772,-441.892,202.297,312.489,-278.294,190.633,189.254
138,0,18.1669,423.464,1172.69,27.3354,157.902,1154.94,-185.963,355.531,1230.01,-171.08,221.721,1228.23,-1.41174,498.721,885.892,43.556,466.4,694.876,36.3348,470.118,519.163,110.309,422.184,260.132,68.3489,370.478,207.527,269.251,421.994,256.199,-96.0882,106.046,870.075,-161.531,136.077,688.515,-270.578,130.222,504.144,-377.356,169.799,314.889,-450.345,201.383,317.654,-291.79,190.262,188.73
139,0,19.8844,424.964,1170.55,28.3763,159.706,1153.41,-184.538,357.973,1227.77,-170.084,223.841,1225.93,-3.13404,499.557,882.239,43.8898,466.652,692.49,38.3128,470.394,516.525,113.524,421.559,258.458,71.0554,370.573,206.42,272.443,419.665,254.495,-95.0897,107.698,868.274,-160.926,136.931,686.555,-274.001,130.232,504.478,-385.417,168.932,317.979,-458.23,200.428,322.926,-305.351,189.885,188.135
140,0,21.5882,426.512,1168.05,29.4571,161.551,1151.43,-183.159,360.394,1225.14,-169.109,225.933,1223.17,-3.80369,500.257,878.68,45.0617,466.953,690.095,39.9787,470.723,513.989,114.07,420.775,256.548,70.7117,370.508,205.498,272.649,417.204,250.952,-93.3549,109.444,865.837,-159.227,137.814,683.845,-276.563,130.235,504.398,-392.907,168.015,321.09,-465.435,199.438,328.377,-318.961,189.505,187.527
141,0,23.2478,428.107,1165.24,30.5443,163.43,1149.03,-181.865,362.753,1222.17,-168.181,227.977,1219.98,-3.30679,500.849,875.37,46.9857,467.318,687.725,41.2954,471.112,511.562,112.084,419.853,254.413,67.5101,370.29,204.719,270.063,414.694,245.755,-90.8801,111.266,862.774,-156.424,138.708,680.396,-278.21,130.226,503.934,-399.74,167.061,324.283,-471.842,198.425,334.076,-332.575,189.125,186.992
142,0,24.8332,429.75,1162.2,31.6037,165.333,1146.23,-180.693,365.013,1218.92,-167.323,229.955,1216.43,-1.62134,501.384,872.436,49.5342,467.763,685.403,42.2259,471.571,509.252,107.776,418.829,252.103,61.7309,369.942,204.061,264.969,412.232,239.252,-87.6721,113.141,859.119,-152.523,139.598,676.248,-278.893,130.202,503.125,-405.822,166.085,327.62,-477.333,197.408,340.091,-346.109,188.744,186.645
143,0,26.316,431.437,1159.02,32.6015,167.246,1143.07,-179.676,367.136,1215.46,-166.557,231.851,1212.55,1.17304,501.928,869.969,52.5442,468.307,683.147,42.7328,472.107,507.064,101.415,417.746,249.699,53.7228,369.498,203.516,257.72,409.917,231.909,-83.7503,115.04,854.933,-147.547,140.469,671.466,-278.57,130.163,502.028,-411.06,165.113,331.165,-481.792,196.414,346.479,-359.43,188.357,186.623
144,0,27.6694,433.161,1155.76,33.5057,169.152,1139.62,-178.845,369.093,1211.85,-165.903,233.653,1208.43,4.89582,502.554,868.01,55.8258,468.965,680.965,42.7786,472.727,505.004,93.3096,416.653,247.296,43.8789,368.995,203.089,248.712,407.838,224.255,-79.1493,116.935,850.3,-141.535,141.311,666.145,-277.207,130.111,500.71,-415.359,164.172,334.979,-485.118,195.479,353.277,-372.349,187.95,187.074
145,0,28.8689,434.914,1152.51,34.2873,171.035,1135.93,-178.218,370.859,1208.19,-165.378,235.351,1204.13,9.27723,503.331,866.554,59.1716,469.748,678.86,42.3257,473.436,503.073,83.7915,415.599,244.993,32.61,368.474,202.782,238.352,406.063,216.809,-73.9221,118.791,845.331,-134.542,142.115,660.405,-274.78,130.054,499.248,-418.63,163.296,339.109,-487.229,194.644,360.498,-384.623,187.505,188.143
146,0,29.8932,436.686,1149.35,34.9215,172.873,1132.09,-177.812,372.419,1204.56,-164.996,236.939,1199.74,13.9798,504.314,865.546,62.367,470.663,676.828,41.3361,474.231,501.273,73.1922,414.63,242.878,20.3191,367.974,202.598,227.028,404.631,210.022,-68.1403,120.58,840.153,-126.636,142.876,654.387,-271.281,130.002,497.726,-420.791,162.522,343.59,-488.066,193.955,368.126,-395.955,186.998,189.956
147,0,30.724,438.464,1146.34,35.3883,174.649,1128.18,-177.63,373.768,1201.02,-164.766,238.415,1195.34,18.6273,505.535,864.891,65.2008,471.709,674.863,39.7722,475.109,499.601,61.8258,413.784,241.018,7.37827,367.526,202.531,215.083,403.546,204.223,-61.8952,122.274,834.908,-117.898,143.594,648.252,-266.711,129.971,496.231,-421.772,161.887,348.432,-487.601,193.458,376.107,-406.007,186.406,192.604
148,0,31.3468,440.235,1143.54,35.6736,176.344,1124.29,-177.672,374.91,1197.66,-164.693,239.781,1191.01,22.8376,506.998,864.468,67.4748,472.878,672.957,37.5975,476.058,498.052,49.9731,413.086,239.456,-5.8898,367.149,202.568,202.801,402.785,199.6,-55.295,123.849,829.744,-108.416,144.272,642.167,-261.089,129.98,494.847,-421.516,161.426,353.621,-485.838,193.194,384.356,-414.419,185.713,196.125
149,0,31.751,441.985,1141,35.7695,177.942,1120.52,-177.927,375.858,1194.56,-164.78,241.04,1186.85,26.2563,508.682,864.143,69.0128,474.153,671.102,34.7778,477.062,496.618,37.8704,412.55,238.203,-19.2235,366.854,202.692,190.398,402.299,196.191,-48.4617,125.288,824.806,-98.2856,144.919,636.305,-254.448,130.049,493.656,-419.982,161.17,359.115,-482.81,193.197,392.75,-420.825,184.918,200.493
150,0,31.9297,443.699,1138.76,35.6737,179.433,1116.94,-178.379,376.635,1191.77,-165.024,242.199,1182.92,28.5858,510.537,863.787,69.6671,475.51,669.291,31.2831,478.1,495.293,25.7034,412.174,237.248,-32.4278,366.64,202.881,178.021,402.025,193.909,-41.5252,126.583,820.233,-87.6029,145.546,630.834,-246.835,130.202,492.729,-417.148,161.144,364.841,-478.577,193.486,401.138,-424.886,184.045,205.62
151,0,31.88,445.366,1136.84,35.39,180.81,1113.65,-179.008,377.269,1189.35,-165.42,243.267,1179.32,29.6094,512.496,863.295,69.3245,476.92,667.522,27.0893,479.147,494.067,13.6055,411.945,236.561,-45.3739,366.495,203.111,165.759,401.897,192.572,-34.6159,127.732,816.146,-76.4654,146.168,625.912,-238.312,130.462,492.126,-413.01,161.363,370.699,-473.223,194.064,409.341,-426.313,183.145,211.351
152,0,31.6027,446.976,1135.25,34.9273,182.069,1110.73,-179.788,377.793,1187.34,-165.96,244.253,1176.11,29.2047,514.478,862.595,67.9087,478.349,665.797,22.1801,480.179,492.934,1.65988,411.841,236.094,-57.9936,366.403,203.361,153.651,401.85,191.951,-27.8569,128.738,812.647,-64.9679,146.799,621.679,-228.951,130.849,491.892,-407.581,161.833,376.563,-466.847,194.915,417.167,-424.893,182.301,217.479
153,0,31.102,448.518,1134.01,34.299,183.215,1108.23,-180.694,378.242,1185.78,-166.632,245.167,1173.34,27.3482,516.4,861.655,65.3814,479.757,664.123,16.549,481.166,491.891,-10.0939,411.832,235.8,-70.2693,366.342,203.616,141.704,401.832,191.805,-21.3556,129.614,809.811,-53.2011,147.459,618.253,-218.834,131.382,492.056,-400.894,162.549,382.29,-459.556,196.003,424.413,-420.507,181.622,223.762
154,0,30.3849,449.989,1133.09,33.5222,184.254,1106.2,-181.7,378.649,1184.68,-167.424,246.018,1171.07,24.1096,518.183,860.49,61.7407,481.107,662.514,10.2003,482.085,490.937,-21.6526,411.888,235.629,-82.2236,366.294,203.868,129.9,401.804,191.914,-15.1967,130.374,807.694,-41.2511,148.163,615.728,-208.05,132.074,492.627,-392.995,163.493,387.719,-451.455,197.279,430.877,-413.14,181.232,229.94
155,0,29.4611,451.383,1132.48,32.6165,185.199,1104.69,-182.782,379.044,1184.04,-168.321,246.814,1169.34,19.6377,519.758,859.153,57.0183,482.363,660.989,3.14995,482.912,490.077,-33.0392,411.978,235.541,-93.906,366.242,204.116,118.209,401.741,192.105,-9.4365,131.036,806.322,-29.1989,148.927,614.169,-196.69,132.929,493.599,-383.946,164.641,392.685,-442.644,198.683,436.366,-402.88,181.254,235.763
156,0,28.3422,452.7,1132.16,31.6034,186.063,1103.72,-183.92,379.451,1183.88,-169.309,247.561,1168.16,14.14,521.074,857.725,51.2743,483.49,659.57,-4.57463,483.628,489.319,-44.2949,412.075,235.508,-105.382,366.174,204.369,106.599,401.631,192.256,-4.09994,131.619,805.704,-17.1212,149.764,613.612,-184.849,133.949,494.946,-373.817,165.959,397.026,-433.209,200.151,440.702,-389.908,181.792,241.009
157,0,27.0414,453.94,1132.1,30.5053,186.863,1103.3,-185.096,379.887,1184.17,-170.373,248.264,1167.56,7.85839,522.097,856.307,44.5915,484.461,658.285,-12.9353,484.219,488.677,-55.4692,412.158,235.515,-116.723,366.087,204.643,95.0358,401.472,192.302,0.819305,132.14,805.829,-5.09136,150.682,614.065,-172.619,135.123,496.624,-362.686,167.41,400.588,-423.215,201.622,443.732,-374.475,182.906,245.503
158,0,25.573,455.105,1132.27,29.3447,187.615,1103.42,-186.298,380.362,1184.88,-171.496,248.924,1167.52,1.0449,522.815,855,37.0686,485.254,657.162,-21.8845,484.676,488.167,-66.6141,412.213,235.561,-127.997,365.983,204.964,83.4894,401.268,192.219,5.35592,132.613,806.673,6.81864,151.687,615.512,-160.087,136.434,498.577,-350.631,168.955,403.234,-412.708,203.047,445.329,-356.883,184.604,249.13
159,0,23.9517,456.197,1132.64,28.1439,188.332,1104.05,-187.517,380.877,1185.99,-172.663,249.541,1168.03,-6.06122,523.232,853.895,28.8135,485.857,656.228,-31.3676,484.995,487.81,-77.7773,412.23,235.656,-139.264,365.868,205.36,71.9338,401.027,192.018,9.56723,133.05,808.201,18.537,152.777,617.908,-147.337,137.859,500.733,-337.731,170.554,404.852,-401.707,204.389,445.398,-337.451,186.83,251.834
160,0,22.1929,457.22,1133.18,26.9241,189.029,1105.17,-188.747,381.425,1187.47,-173.86,250.113,1169.08,-13.2521,523.37,853.065,19.9372,486.264,655.508,-41.3243,485.178,487.625,-88.9994,412.208,235.823,-150.572,365.754,205.863,60.3465,400.758,191.728,13.5255,133.455,810.371,29.9905,153.943,621.189,-134.444,139.368,503.014,-324.057,172.171,405.356,-390.211,205.633,443.878,-316.492,189.466,253.622
161,0,20.3118,458.175,1133.85,25.7059,189.715,1106.75,-189.989,381.992,1189.26,-175.073,250.636,1170.62,-20.3646,523.263,852.559,10.5483,486.477,655.025,-51.692,485.229,487.634,-100.311,412.147,236.088,-161.956,365.651,206.507,48.7086,400.469,191.387,17.3087,133.833,813.137,41.103,155.171,625.271,-121.477,140.925,505.331,-309.671,173.776,404.694,-378.192,206.781,440.741,-294.294,192.346,254.547
162,0,18.3238,459.064,1134.65,24.5082,190.396,1108.72,-191.242,382.559,1191.33,-176.288,251.104,1172.62,-27.2874,522.954,852.395,0.748522,486.508,654.797,-62.4067,485.157,487.856,-111.731,412.053,236.484,-173.435,365.57,207.326,37.0034,400.164,191.028,20.9919,134.18,816.448,51.7955,156.442,630.054,-108.498,142.495,507.596,-294.624,175.345,402.844,-365.605,207.853,435.996,-271.105,195.277,254.699
163,0,16.2444,459.89,1135.53,23.3493,191.074,1111.05,-192.507,383.103,1193.63,-177.49,251.511,1175.02,-33.9625,522.486,852.57,-9.36964,486.372,654.835,-73.4056,484.971,488.309,-123.269,411.93,237.04,-185.017,365.516,208.35,25.2165,399.85,190.679,24.6385,134.492,820.254,61.9856,157.73,635.425,-95.5633,144.04,509.72,-278.952,176.86,399.822,-352.389,208.881,429.688,-247.124,198.062,254.189
164,0,14.0892,460.651,1136.5,22.2458,191.748,1113.68,-193.787,383.598,1196.12,-178.668,251.849,1177.77,-40.3807,521.903,853.062,-19.7245,486.091,655.146,-84.628,484.685,489.007,-134.925,411.782,237.786,-196.7,365.492,209.607,13.3352,399.527,190.357,28.2936,134.761,824.498,71.5888,159.005,641.263,-82.7227,145.524,511.622,-262.68,178.31,395.672,-338.47,209.903,421.894,-222.503,200.53,253.13
165,0,11.8742,461.349,1137.54,21.2137,192.414,1116.56,-195.08,384.017,1198.76,-179.807,252.111,1180.81,-46.5734,521.244,853.834,-30.245,485.689,655.731,-96.0161,484.308,489.958,-146.689,411.612,238.746,-208.473,365.493,211.121,1.34878,399.199,190.069,31.9796,134.981,829.121,80.5201,160.238,647.439,-70.0228,146.917,513.229,-245.819,179.688,390.473,-323.771,210.959,412.727,-197.354,202.552,251.63
166,0,9.6161,461.982,1138.63,20.2678,193.067,1119.64,-196.386,384.335,1201.5,-180.893,252.288,1184.08,-52.6006,520.54,854.844,-40.8693,485.19,656.586,-107.515,483.853,491.169,-158.545,411.422,239.939,-220.321,365.511,212.911,-10.7513,398.867,189.816,35.6945,135.142,834.061,88.6962,161.395,653.82,-57.5074,148.19,514.482,-228.374,180.994,384.33,-308.216,212.084,402.33,-171.752,204.061,249.782
167,0,7.33258,462.55,1139.78,19.4222,193.698,1122.86,-197.698,384.529,1204.31,-181.913,252.373,1187.51,-58.5375,519.81,856.05,-51.5424,484.618,657.7,-119.073,483.328,492.64,-170.475,411.21,241.377,-232.222,365.531,214.992,-22.9712,398.531,189.59,39.4123,135.237,839.248,96.0385,162.447,660.277,-45.2191,149.323,515.336,-210.346,182.229,377.375,-291.739,213.303,390.877,-145.752,205.048,247.661
168,0,5.04255,463.052,1140.98,18.69,194.301,1126.19,-199.01,384.579,1207.16,-182.853,252.361,1191.05,-64.4608,519.067,857.413,-62.2135,483.994,659.059,-130.639,482.743,494.366,-182.454,410.972,243.065,-244.158,365.537,217.373,-35.3142,398.192,189.382,43.086,135.257,844.61,102.477,163.366,666.679,-33.2001,150.301,515.769,-191.74,183.396,369.758,-274.293,214.628,378.565,-119.396,205.564,245.326
169,0,2.76639,463.489,1142.22,18.0835,194.868,1129.57,-200.307,384.471,1210.02,-183.698,252.244,1194.64,-70.4355,518.311,858.902,-72.8332,483.335,660.642,-142.166,482.103,496.335,-194.459,410.703,245.001,-256.106,365.511,220.057,-47.7807,397.851,189.183,46.6524,135.197,850.066,107.952,164.132,672.904,-21.4932,151.118,515.774,-172.569,184.5,361.647,-255.853,216.06,365.616,-92.7292,205.697,242.829
170,0,0.526045,463.86,1143.52,17.6139,195.393,1132.97,-201.576,384.192,1212.85,-184.435,252.018,1198.2,-76.5048,517.539,860.488,-83.3503,482.651,662.425,-153.604,481.414,498.534,-206.465,410.399,247.179,-268.046,365.433,223.044,-60.3676,397.506,188.984,50.0378,135.05,855.533,112.42,164.729,678.84,-10.142,151.772,515.365,-152.863,185.544,353.219,-236.431,217.585,352.262,-65.8055,205.559,240.221
171,0,-1.65499,464.167,1144.86,17.2913,195.874,1136.35,-202.798,383.74,1215.64,-185.049,251.681,1201.71,-82.6822,516.743,862.151,-93.71,481.95,664.378,-164.906,480.68,500.942,-218.448,410.053,249.585,-279.96,365.288,226.325,-73.0687,397.158,188.779,53.1647,134.811,860.922,115.856,165.15,684.384,0.808688,152.269,514.572,-132.677,186.533,344.656,-216.073,219.181,338.746,-38.701,205.26,237.564
172,0,-3.75185,464.409,1146.25,17.1243,196.308,1139.68,-203.95,383.112,1218.36,-185.528,251.229,1205.09,-88.9482,515.913,863.87,-103.852,481.234,666.47,-176.024,479.906,503.533,-230.387,409.663,252.203,-291.829,365.065,229.887,-85.8748,396.804,188.566,55.9578,134.476,866.142,118.255,165.395,689.449,11.3137,152.621,513.44,-112.089,187.468,336.138,-194.871,220.822,325.311,-11.5186,204.894,234.938
173,0,-5.73866,464.589,1147.67,17.1199,196.695,1142.92,-205.011,382.314,1220.99,-185.859,250.663,1208.3,-95.2505,515.041,865.627,-113.712,480.501,668.663,-186.907,479.095,506.28,-242.263,409.226,255.013,-303.638,364.757,233.714,-98.7746,396.441,188.345,58.3506,134.04,871.102,119.637,165.472,693.965,21.3276,152.844,512.024,-91.2125,188.354,327.835,-172.961,222.477,312.186,15.6071,204.524,232.444
174,0,-7.5891,464.707,1149.11,17.2832,197.038,1146.04,-205.956,381.354,1223.51,-186.032,249.984,1211.31,-101.508,514.122,867.4,-123.217,479.746,670.918,-197.505,478.254,509.149,-254.057,408.745,257.994,-315.375,364.367,237.782,-111.756,396.067,188.117,60.2895,133.503,875.713,120.044,165.396,697.877,30.8063,152.96,510.384,-70.1923,189.195,319.902,-150.524,224.118,299.586,42.5076,204.184,230.203
175,0,-9.27712,464.763,1150.57,17.6172,197.337,1149.01,-206.762,380.247,1225.9,-186.038,249.192,1214.07,-107.619,513.156,869.166,-132.292,478.965,673.19,-207.768,477.39,512.103,-265.755,408.225,261.124,-327.029,363.902,242.067,-124.809,395.678,187.888,61.7384,132.864,879.888,119.543,165.19,701.152,39.7075,152.992,508.582,-49.2052,189.996,312.468,-127.784,225.723,287.695,68.9829,203.876,228.348
176,0,-10.7778,464.757,1152.02,18.1223,197.598,1151.8,-207.406,379.006,1228.12,-185.872,248.293,1216.54,-113.47,512.148,870.899,-140.86,478.155,675.433,-217.643,476.513,515.104,-277.341,407.676,264.378,-338.592,363.38,246.543,-137.926,395.272,187.662,62.6807,132.129,883.55,118.223,164.879,703.771,47.9921,152.967,506.676,-28.4575,190.765,305.635,-105.004,227.275,276.66,94.8057,203.589,227.011
177,0,-12.0681,464.686,1153.44,18.7967,197.82,1154.37,-207.868,377.652,1230.16,-185.532,247.29,1218.71,-118.943,511.108,872.565,-148.84,477.316,677.597,-227.08,475.636,518.11,-288.804,407.113,267.737,-350.059,362.826,251.183,-151.104,394.844,187.447,63.1212,131.305,886.63,116.195,164.495,705.737,55.6256,152.913,504.715,-8.17977,191.513,299.473,-82.4789,228.763,266.591,119.729,203.306,226.305
178,0,-13.1283,464.548,1154.8,19.6358,198.006,1156.7,-208.133,376.203,1231.98,-185.017,246.189,1220.54,-123.93,510.046,874.132,-156.156,476.452,679.631,-236.026,474.775,521.077,-300.13,406.554,271.177,-361.423,362.271,255.963,-164.349,394.391,187.247,63.0857,130.409,889.073,113.586,164.07,707.066,62.5786,152.859,502.74,11.38,192.25,294.014,-60.527,230.183,257.551,143.496,203.02,226.301
179,0,-13.9425,464.337,1156.07,20.6324,198.154,1158.75,-208.19,374.679,1233.55,-184.333,244.999,1222.01,-128.334,508.978,875.562,-162.734,475.573,681.48,-244.433,473.951,523.96,-311.304,406.022,274.681,-372.678,361.75,260.86,-177.672,393.905,187.067,62.6208,129.462,890.837,110.538,163.637,707.788,68.8276,152.833,500.776,29.9645,192.993,289.254,-39.4812,231.538,249.561,165.849,202.746,227.013
180,0,-14.4998,464.046,1157.2,21.7766,198.258,1160.49,-208.031,373.103,1234.83,-183.489,243.726,1223.11,-132.082,507.916,876.813,-168.505,474.695,683.088,-252.247,473.183,526.714,-322.308,405.542,278.23,-383.812,361.303,265.858,-191.092,393.38,186.908,61.7913,128.494,891.9,107.199,163.229,707.945,74.3562,152.861,498.837,47.3158,193.757,285.155,-19.6775,232.831,242.601,186.538,202.524,228.38
181,0,-14.795,463.669,1158.17,23.056,198.313,1161.89,-207.658,371.495,1235.8,-182.496,242.381,1223.82,-135.12,506.874,877.844,-173.406,473.842,684.4,-259.421,472.497,529.294,-333.119,405.142,281.81,-394.805,360.968,270.944,-204.629,392.807,186.767,60.6778,127.538,892.258,103.721,162.876,707.587,79.1543,152.969,496.922,63.1849,194.558,281.651,-1.44449,234.067,236.617,205.331,202.419,230.26
182,0,-14.8291,463.197,1158.93,24.456,198.307,1162.92,-207.078,369.873,1236.4,-181.371,240.975,1224.13,-137.416,505.861,878.609,-177.386,473.041,685.359,-265.903,471.918,531.657,-343.705,404.848,285.408,-405.628,360.782,276.114,-218.3,392.177,186.638,59.3732,126.634,891.928,100.253,162.606,706.769,83.2191,153.177,495.021,77.3412,195.41,278.653,14.9084,235.251,231.528,222.015,202.509,232.431
183,0,-14.6098,462.622,1159.43,25.9594,198.228,1163.56,-206.304,368.257,1236.62,-180.136,239.517,1224.05,-138.959,504.886,879.062,-180.397,472.325,685.912,-271.643,471.471,533.764,-354.027,404.686,289.017,-416.232,360.777,281.37,-232.111,391.487,186.507,57.9783,125.822,890.95,96.9351,162.439,705.547,86.5542,153.501,493.115,89.5813,196.327,276.056,29.1024,236.385,227.238,236.405,202.881,234.608
184,0,-14.1516,461.934,1159.64,27.5474,198.058,1163.78,-205.357,366.663,1236.41,-178.812,238.02,1223.58,-139.749,503.955,879.154,-182.406,471.727,686.009,-276.595,471.181,535.579,-364.032,404.68,292.632,-426.554,360.976,286.725,-246.047,390.74,186.363,56.5969,125.138,889.38,93.8939,162.393,703.98,89.1696,153.953,491.181,99.7367,197.316,273.751,40.9007,237.468,223.64,248.341,203.609,236.475
185,0,-13.4751,461.128,1159.52,29.1993,197.782,1163.58,-204.265,365.107,1235.74,-177.427,236.498,1222.72,-139.799,503.075,878.837,-183.387,471.282,685.607,-280.708,471.071,537.074,-373.658,404.849,296.254,-436.507,361.396,292.199,-260.066,389.949,186.192,55.3307,124.614,887.296,91.2364,162.474,702.121,91.0809,154.537,489.195,107.681,198.38,271.631,50.1183,238.497,220.632,257.696,204.749,237.714
186,0,-12.6072,460.198,1159.05,30.8928,197.38,1162.96,-203.058,363.6,1234.6,-176.01,234.962,1221.49,-139.122,502.251,878.066,-183.323,471.024,684.672,-283.937,471.161,538.229,-382.827,405.209,299.892,-445.985,362.042,297.821,-274.086,389.146,185.983,54.2732,124.267,884.787,89.0463,162.682,700.02,92.3084,155.252,487.135,113.337,199.515,269.605,56.6317,239.465,218.116,264.376,206.318,238.054
187,0,-11.5795,459.143,1158.19,32.6045,196.835,1161.91,-201.774,362.155,1232.98,-174.59,233.426,1219.91,-137.734,501.489,876.802,-182.212,470.979,683.182,-286.24,471.468,539.034,-391.452,405.769,303.561,-454.862,362.91,303.628,-287.988,388.38,185.74,53.5043,124.102,881.954,87.3804,163.007,697.726,92.8765,156.085,484.985,116.675,200.709,267.596,60.3858,240.364,216.01,268.333,208.297,237.305
188,0,-10.428,457.965,1156.93,34.3098,196.133,1160.45,-200.453,360.778,1230.87,-173.199,231.905,1217.99,-135.646,500.799,875.015,-180.059,471.171,681.13,-287.576,472.004,539.491,-399.436,406.533,307.282,-462.997,363.989,309.661,-301.616,387.723,185.477,53.0843,124.107,878.901,86.2659,163.431,695.277,92.8127,157.018,482.736,117.722,201.944,265.553,61.3987,241.185,214.246,269.57,210.624,235.388
189,0,-9.19091,456.668,1155.28,35.9836,195.26,1158.62,-199.136,359.477,1228.27,-171.867,230.41,1215.79,-132.868,500.193,872.693,-176.882,471.612,678.526,-287.912,472.775,539.612,-406.677,407.501,311.085,-470.242,365.258,315.964,-314.783,387.26,185.232,53.0493,124.25,875.73,85.6988,163.923,692.71,92.1463,158.025,480.39,116.557,203.194,263.448,59.7624,241.918,212.771,268.156,213.201,232.354
190,0,-7.90786,455.262,1153.23,37.6003,194.21,1156.43,-197.864,358.253,1225.23,-170.623,228.953,1213.32,-129.41,499.683,869.846,-172.713,472.308,675.398,-287.223,473.782,539.424,-413.072,408.667,315.004,-476.447,366.69,322.579,-327.29,387.089,185.067,53.4071,124.484,872.536,85.6436,164.448,690.055,90.9071,159.072,477.955,113.305,204.426,261.279,55.6408,242.553,211.547,264.226,215.902,228.374
191,0,-6.61803,453.761,1150.82,39.1343,192.978,1153.94,-196.675,357.108,1221.77,-169.494,227.548,1210.64,-125.286,499.284,866.506,-167.591,473.253,671.797,-285.492,475.019,538.967,-418.524,410.021,319.08,-481.475,368.255,329.54,-338.944,387.309,185.066,54.1345,124.748,869.401,86.0338,164.962,687.338,89.1241,160.119,475.449,108.14,205.605,259.063,49.2617,243.081,210.545,257.991,218.586,223.721
192,0,-5.35871,452.182,1148.07,40.5603,191.568,1151.2,-195.604,356.041,1217.94,-168.505,226.203,1207.79,-120.519,499.009,862.736,-161.568,474.431,667.791,-282.712,476.475,538.289,-422.943,411.549,323.35,-485.204,369.918,336.87,-349.573,388.005,185.338,55.1765,124.974,866.39,86.7749,165.416,684.581,86.8237,161.122,472.894,101.267,206.693,256.833,40.9055,243.496,209.744,249.731,221.11,218.73
193,0,-4.16382,450.546,1145.03,41.8539,189.989,1148.26,-194.682,355.047,1213.81,-167.676,224.928,1204.82,-115.148,498.866,858.626,-154.707,475.818,663.468,-278.89,478.132,537.452,-426.256,413.23,327.852,-487.547,371.643,344.572,-359.047,389.237,186.003,56.4482,125.09,863.547,87.7473,165.762,681.8,84.0287,162.037,470.318,92.9207,207.654,254.632,30.8896,243.791,209.128,239.776,223.349,213.751
194,0,-3.06273,448.875,1141.77,42.9918,188.256,1145.21,-193.931,354.122,1209.45,-167.024,223.729,1201.79,-109.231,498.858,854.289,-147.078,477.379,658.931,-274.045,479.964,536.522,-428.406,415.042,332.615,-488.452,373.396,352.626,-367.283,391.03,187.185,57.8377,125.029,860.898,88.8119,165.951,679.011,80.7563,162.822,467.748,83.3484,208.455,252.507,19.5508,243.961,208.679,228.49,225.202,209.105
195,0,-2.0792,447.192,1138.35,43.9529,186.389,1142.09,-193.367,353.258,1204.95,-166.56,222.612,1198.74,-102.853,498.979,849.856,-138.757,479.074,654.298,-268.208,481.941,535.572,-429.358,416.958,337.654,-487.91,375.14,360.987,-374.244,393.366,188.997,59.2123,124.732,858.45,89.8163,165.94,676.225,77.0178,163.436,465.211,72.8009,209.07,250.502,7.22614,244.005,208.38,216.242,226.61,205.039
196,0,-1.23079,445.521,1134.85,44.718,184.412,1138.99,-192.998,352.449,1200.4,-166.292,221.58,1195.74,-96.118,499.215,845.465,-129.826,480.857,649.692,-261.427,484.025,534.674,-429.097,418.947,342.971,-485.957,376.841,369.579,-379.929,396.186,191.525,60.4258,124.157,856.191,90.6017,165.695,673.453,72.8177,163.848,462.732,61.5198,209.481,248.655,-5.76486,243.926,208.211,203.377,227.552,201.711
197,0,-0.528536,443.883,1131.35,45.2712,182.352,1135.97,-192.824,351.686,1195.9,-166.222,220.634,1192.83,-89.1559,499.542,841.253,-120.369,482.68,645.241,-253.761,486.176,533.899,-427.629,420.973,348.545,-482.671,378.469,378.297,-384.357,399.39,194.818,61.3272,123.279,854.099,91.011,165.191,670.704,68.1543,164.036,460.331,49.7277,209.68,246.992,-19.1359,243.728,208.152,190.197,228.049,199.175
198,0,0.0229577,442.297,1127.93,45.5998,180.239,1133.09,-192.837,350.964,1191.54,-166.348,219.774,1190.08,-82.1104,499.927,837.343,-110.468,484.495,641.07,-245.28,488.348,533.311,-424.976,423.002,354.334,-478.169,379.996,387.01,-387.541,402.851,198.871,61.7707,122.094,852.146,90.896,164.418,667.988,63.0205,163.988,458.025,37.6195,209.67,245.529,-32.6457,243.42,208.179,176.942,228.155,197.394
199,0,0.425084,440.778,1124.67,45.6949,178.101,1130.4,-193.024,350.278,1187.41,-166.664,218.998,1187.53,-75.1325,500.332,833.838,-100.204,486.253,637.296,-236.067,490.492,532.968,-421.175,424.995,360.273,-472.594,381.399,395.564,-389.476,406.427,203.623,61.6244,120.617,850.3,90.1248,163.381,665.317,57.405,163.704,455.827,25.3567,209.463,244.269,-46.1049,243.017,208.271,163.788,227.947,196.262
200,0,0.684465,439.335,1121.66,45.5518,175.968,1127.96,-193.365,349.624,1183.6,-167.159,218.302,1185.22,-68.3697,500.717,830.815,-89.6567,487.91,634.027,-226.211,492.558,532.914,-416.275,426.917,366.273,-466.105,382.665,403.786,-390.121,409.976,208.952,60.7793,118.884,848.534,88.587,162.098,662.706,51.2945,163.197,453.749,13.0642,209.08,243.207,-59.3787,242.535,208.407,150.839,227.511,195.629
201,0,0.811957,437.975,1118.96,45.17,173.864,1125.81,-193.837,349.001,1180.18,-167.821,217.681,1183.2,-61.9545,501.044,828.325,-78.8975,489.429,631.354,-215.809,494.499,533.183,-410.331,428.735,372.223,-458.869,383.784,411.495,-389.399,413.366,214.684,59.156,116.944,846.826,86.1988,160.604,660.17,44.6761,162.488,451.801,0.830071,208.551,242.327,-72.3849,241.992,208.571,138.145,226.934,195.333
202,0,0.821479,436.698,1116.63,44.5536,171.812,1123.97,-194.417,348.411,1177.23,-168.635,217.13,1181.49,-55.9929,501.283,826.392,-67.995,490.775,629.351,-204.961,496.266,533.792,-403.403,430.423,377.995,-451.04,384.758,418.503,-387.195,416.487,220.599,56.7096,114.861,845.168,82.9044,158.944,657.733,37.539,161.61,449.991,-11.292,207.908,241.612,-85.0882,241.408,208.75,125.706,226.292,195.224
203,0,0.728789,435.499,1114.72,43.7108,169.83,1122.47,-195.078,347.858,1174.79,-169.581,216.644,1180.13,-50.5563,501.41,825.018,-57.0125,491.921,628.072,-193.768,497.818,534.745,-395.552,431.959,383.446,-442.754,385.595,424.63,-383.364,419.261,226.451,53.4315,112.706,843.559,78.6771,157.172,655.419,29.8773,160.602,448.333,-23.2791,207.186,241.041,-97.4922,240.802,208.938,113.491,225.646,195.179
204,0,0.550293,434.372,1113.28,42.6539,167.932,1121.31,-195.796,347.348,1172.9,-170.643,216.217,1179.13,-45.6747,501.416,824.193,-46.0096,492.848,627.553,-182.332,499.119,536.03,-386.839,433.332,388.427,-434.12,386.309,429.702,-377.748,421.638,231.988,49.3492,110.552,842.014,73.5182,155.351,653.257,21.6908,159.507,446.838,-35.1329,206.419,240.596,-109.63,240.191,209.134,101.45,225.036,195.112
205,0,0.301972,433.305,1112.32,41.399,166.127,1120.5,-196.55,346.889,1171.59,-171.8,215.842,1178.51,-41.3362,501.302,823.897,-35.0429,493.542,627.808,-170.748,500.141,537.623,-377.326,434.537,392.784,-425.21,386.92,433.564,-370.19,423.601,236.969,44.5224,108.473,840.555,67.4538,153.544,651.277,12.9872,158.37,445.521,-46.8736,205.638,240.263,-121.552,239.59,209.344,89.5248,224.488,194.974
206,0,-0.00147622,432.288,1111.85,39.9652,164.422,1120.02,-197.321,346.488,1170.86,-173.034,215.516,1178.27,-37.4889,501.083,824.111,-24.1682,493.995,628.836,-159.108,500.866,539.486,-367.07,435.578,396.368,-416.062,387.45,436.079,-360.55,425.162,241.191,39.0384,106.537,839.214,60.5312,151.81,649.511,3.78172,157.234,444.4,-58.5335,204.871,240.033,-133.322,239.007,209.581,77.6591,224.013,194.749
207,0,-0.347246,431.309,1111.88,38.3742,162.821,1119.87,-198.095,346.154,1170.71,-174.326,215.233,1178.41,-34.0482,500.781,824.817,-13.4418,494.205,630.615,-147.496,501.287,541.566,-356.127,436.466,399.041,-406.677,387.918,437.137,-348.722,426.355,244.499,33.0037,104.804,838.026,52.8153,150.205,647.991,-5.90213,156.138,443.495,-70.1508,204.139,239.907,-145.003,238.45,209.866,65.8045,223.608,194.447
208,0,-0.724737,430.36,1112.39,36.6498,161.323,1120.01,-198.859,345.893,1171.12,-175.657,214.991,1178.93,-30.9066,500.423,826,-2.92231,494.173,633.107,-135.987,501.407,543.807,-344.548,437.216,400.683,-397.024,388.344,436.656,-334.653,427.233,246.805,26.5364,103.323,837.028,44.383,148.776,646.745,-16.0333,155.118,442.823,-81.7642,203.458,239.89,-156.653,237.92,210.223,53.9224,223.269,194.088
209,0,-1.12557,429.431,1113.36,34.8167,159.93,1120.42,-199.608,345.712,1172.08,-177.01,214.788,1179.8,-27.946,500.041,827.65,7.32814,493.907,636.261,-124.647,501.239,546.138,-332.376,437.848,401.196,-387.044,388.741,434.583,-318.355,427.861,248.086,19.7572,102.128,836.253,35.3196,147.555,645.8,-26.5741,154.199,442.405,-93.4089,202.838,239.996,-168.322,237.416,210.684,41.9855,222.984,193.701
210,0,-1.54334,428.521,1114.78,32.9004,158.641,1121.08,-200.337,345.611,1173.54,-178.37,214.621,1181.03,-25.0503,499.661,829.761,17.243,493.416,640.011,-113.533,500.805,548.487,-319.647,438.382,400.508,-376.658,389.118,430.896,-299.912,428.314,248.387,12.7812,101.241,835.73,25.7148,146.566,645.177,-37.4813,153.402,442.261,-105.114,202.285,240.245,-180.046,236.936,211.284,29.9755,222.74,193.311
211,0,-1.97309,427.629,1116.59,30.9263,157.458,1121.96,-201.044,345.594,1175.46,-179.722,214.492,1182.58,-22.117,499.306,832.321,26.7509,492.713,644.28,-102.692,500.138,550.779,-306.384,438.84,398.579,-365.773,389.479,425.609,-279.487,428.672,247.807,5.71089,100.666,835.481,15.6593,145.816,644.89,-48.7072,152.735,442.406,-116.899,201.799,240.66,-191.85,236.479,212.062,17.8819,222.526,192.941
212,0,-2.41065,426.759,1118.77,28.9191,156.38,1123.02,-201.729,345.657,1177.8,-181.051,214.402,1184.42,-19.0672,498.992,835.319,35.7762,491.815,648.98,-92.1602,499.272,552.936,-292.597,439.239,395.4,-354.287,389.826,418.765,-257.312,429.013,246.485,-1.36899,100.396,835.518,5.24192,145.303,644.949,-60.2016,152.202,442.854,-128.776,201.378,241.267,-203.745,236.041,213.058,5.69932,222.33,192.603
213,0,-2.85184,425.92,1121.28,26.9023,155.412,1124.23,-202.393,345.797,1180.51,-182.346,214.352,1186.55,-15.8518,498.725,838.731,44.2402,490.74,654.016,-81.9689,498.248,554.886,-278.279,439.597,390.997,-342.095,390.155,410.444,-233.673,429.411,244.584,-8.39463,100.409,835.844,-5.45171,145.01,645.357,-71.9123,151.799,443.617,-140.747,201.017,242.092,-215.727,235.622,214.311,-6.5751,222.141,192.303
214,0,-3.29165,425.121,1124.07,24.8981,154.558,1125.58,-203.034,346.01,1183.54,-183.593,214.346,1188.91,-12.4545,498.505,842.527,52.0626,489.511,659.285,-72.1401,497.108,556.561,-263.409,439.925,385.432,-329.093,390.466,400.756,-208.887,429.922,242.267,-15.324,100.674,836.454,-16.3407,144.913,646.109,-83.7863,151.515,444.701,-152.807,200.711,243.16,-227.788,235.225,215.857,-18.9431,221.948,192.04
215,0,-3.72339,424.377,1127.1,22.9267,153.823,1127.03,-203.65,346.288,1186.83,-184.783,214.389,1191.48,-8.89055,498.322,846.664,59.1643,488.15,664.683,-62.6903,495.892,557.902,-247.949,440.233,378.798,-315.182,390.754,389.843,-183.271,430.583,239.689,-22.1355,101.153,837.337,-27.3494,144.983,647.195,-95.7708,151.334,446.106,-164.941,200.454,244.491,-239.906,234.851,217.729,-31.4065,221.741,191.81
216,0,-4.13808,423.702,1130.33,21.0066,153.211,1128.57,-204.239,346.628,1190.32,-185.905,214.486,1194.23,-5.20287,498.165,851.087,65.4701,486.685,670.101,-53.6311,494.636,558.86,-231.852,440.525,371.221,-300.272,391.02,377.876,-157.111,431.402,236.979,-28.8244,101.802,838.474,-38.4071,145.184,648.6,-107.813,151.239,447.829,-177.133,200.239,246.101,-252.059,234.506,219.952,-43.9678,221.514,191.604
217,0,-4.52392,423.109,1133.71,19.1544,152.728,1130.17,-204.793,347.023,1193.96,-186.948,214.643,1197.12,-1.45554,498.017,855.732,70.9121,485.144,675.435,-44.9705,493.373,559.401,-215.063,440.798,362.858,-284.286,391.262,365.055,-130.642,432.355,234.242,-35.3985,102.577,839.843,-49.448,145.48,650.301,-119.862,151.211,449.859,-189.359,200.062,248.001,-264.219,234.195,222.547,-56.6302,221.259,191.416
218,0,-4.86597,422.61,1137.2,17.3848,152.377,1131.82,-205.303,347.47,1197.69,-187.904,214.868,1200.12,2.2736,497.865,860.525,75.4333,483.559,680.583,-36.7132,492.131,559.503,-197.529,441.047,353.89,-267.164,391.479,351.6,-104.032,433.387,231.558,-41.8721,103.435,841.418,-60.4099,145.837,652.273,-131.866,151.231,452.181,-201.594,199.916,250.192,-276.357,233.92,225.522,-69.3963,220.976,191.236
219,0,-5.14619,422.218,1140.75,15.7111,152.16,1133.51,-205.757,347.968,1201.46,-188.763,215.169,1203.18,5.90032,497.695,865.388,78.991,481.96,685.449,-28.862,490.929,559.161,-179.206,441.262,344.52,-248.87,391.669,337.753,-77.3799,434.418,228.994,-48.2604,104.337,843.173,-71.2333,146.224,654.484,-143.775,151.281,454.774,-213.812,199.796,252.671,-288.448,233.684,228.879,-82.2679,220.663,191.062
220,0,-5.34371,421.939,1144.32,14.1452,152.075,1135.22,-206.143,348.518,1205.22,-189.518,215.552,1206.27,9.34016,497.503,870.234,81.5603,480.379,689.948,-21.4182,489.782,558.383,-160.071,441.426,334.965,-229.398,391.826,323.763,-50.7296,435.347,226.617,-54.5737,105.251,845.079,-81.8601,146.614,656.901,-155.538,151.346,457.609,-225.985,199.696,255.426,-300.465,233.487,232.609,-95.2442,220.322,190.89
221,0,-5.43535,421.777,1147.86,12.6979,152.12,1136.94,-206.443,349.123,1208.9,-190.159,216.028,1209.35,12.5129,497.289,874.976,83.1372,478.85,694.004,-14.3813,488.7,557.191,-140.131,441.52,325.45,-208.779,391.942,309.889,-24.0881,436.071,224.506,-60.8134,106.152,847.11,-92.2325,146.987,659.484,-167.106,151.415,460.654,-238.087,199.611,258.439,-312.386,233.323,236.694,-108.321,219.96,190.722
222,0,-5.39648,421.734,1151.32,11.3793,152.286,1138.66,-206.642,349.79,1212.46,-190.681,216.603,1212.37,15.3454,497.065,879.522,83.7409,477.401,697.558,-7.74981,487.684,555.619,-119.43,441.522,316.197,-187.088,392,296.381,2.54794,436.494,222.765,-66.9681,107.022,849.235,-102.292,147.329,662.193,-178.429,151.476,463.871,-250.092,199.533,261.686,-324.192,233.186,241.108,-121.491,219.579,190.562
223,0,-5.20208,421.807,1154.66,10.1986,152.566,1140.36,-206.721,350.528,1215.85,-191.075,217.285,1215.3,17.7724,496.851,883.782,83.416,476.06,700.562,-1.52093,486.734,553.71,-98.0634,441.409,307.416,-164.451,391.98,283.475,29.1658,436.536,221.525,-73.012,107.851,851.427,-111.977,147.633,664.983,-189.458,151.523,467.218,-261.975,199.456,265.138,-335.867,233.064,245.819,-134.739,219.187,190.416
224,0,-4.82795,421.99,1157.82,9.16466,152.948,1142.03,-206.663,351.348,1219.02,-191.337,218.081,1218.09,19.7371,496.676,887.665,82.2329,474.848,702.986,4.30953,485.846,551.511,-76.1773,441.158,299.291,-141.051,391.858,271.381,55.7133,436.146,220.937,-78.9049,108.638,853.654,-121.226,147.896,667.805,-200.145,151.553,470.648,-273.711,199.369,268.762,-347.397,232.946,250.788,-148.05,218.788,190.292
225,0,-4.25206,422.277,1160.76,8.28586,153.42,1143.65,-206.452,352.261,1221.92,-191.463,218.997,1220.69,21.1915,496.575,891.082,80.2882,473.784,704.815,9.74728,485.014,549.076,-53.9738,440.748,291.974,-117.128,391.609,260.275,82.0818,435.306,221.159,-84.593,109.386,855.882,-129.972,148.122,670.609,-210.44,151.562,474.114,-285.279,199.265,272.522,-358.77,232.817,255.974,-161.403,218.385,190.196
226,0,-3.45593,422.659,1163.43,7.56984,153.969,1145.21,-206.075,353.281,1224.52,-191.448,220.036,1223.07,22.0978,496.588,893.947,77.703,472.878,706.053,14.7996,484.228,546.457,-31.7091,440.165,285.568,-92.9847,391.21,250.287,108.096,434.03,222.328,-90.0114,110.102,858.075,-138.148,148.318,673.339,-220.298,151.55,477.562,-296.654,199.133,276.38,-369.973,232.663,261.332,-174.779,217.982,190.13
227,0,-2.42596,423.127,1165.78,7.02341,154.582,1146.68,-205.519,354.419,1226.77,-191.294,221.2,1225.18,22.4307,496.752,896.184,74.6202,472.131,706.717,19.4756,483.48,543.704,-9.68783,439.399,280.126,-68.9746,390.64,241.496,133.511,432.36,224.53,-95.087,110.797,860.191,-145.683,148.492,675.939,-229.67,151.515,480.941,-307.815,198.963,280.298,-380.992,232.471,266.821,-188.162,217.583,190.088
228,0,-1.15459,423.674,1167.79,6.65215,155.249,1148.03,-204.778,355.686,1228.63,-190.999,222.489,1226.97,22.1821,497.095,897.728,71.2012,471.54,706.838,23.7857,482.76,540.864,11.7466,438.449,275.646,-45.4982,389.889,233.929,158.022,430.365,227.767,-99.7423,111.485,862.183,-152.506,148.654,678.346,-238.512,151.458,484.196,-318.739,198.746,284.24,-391.813,232.229,272.4,-201.542,217.19,190.059
229,0,0.358703,424.293,1169.41,6.45994,155.962,1149.23,-203.849,357.09,1230.08,-190.568,223.899,1228.41,21.3667,497.634,898.53,67.6199,471.092,706.46,27.7421,482.06,537.979,32.2249,437.323,272.067,-22.9883,388.956,227.559,181.273,428.123,231.933,-103.899,112.179,863.998,-158.547,148.813,680.494,-246.778,151.376,487.274,-329.401,198.471,288.171,-402.411,231.929,278.034,-214.921,216.81,190.021
230,0,2.1067,424.98,1170.61,6.44852,156.714,1150.25,-202.735,358.635,1231.09,-190.006,225.425,1229.45,20.0283,498.366,898.566,64.057,470.767,705.636,31.3581,481.372,535.082,51.3681,436.036,269.28,-1.89264,387.85,222.313,202.88,425.717,236.797,-107.48,112.892,865.578,-163.738,148.976,682.317,-254.425,151.27,490.123,-339.774,198.132,292.063,-412.759,231.564,283.697,-228.312,216.449,189.941
231,0,4.07411,425.73,1171.38,6.61689,157.504,1151.07,-201.444,360.321,1231.63,-189.321,227.057,1230.07,18.2456,499.269,897.837,60.6924,470.543,704.429,34.6479,480.69,532.201,68.8058,434.608,267.135,17.3462,386.592,218.079,222.449,423.225,242.01,-110.417,113.636,866.859,-168.013,149.148,683.747,-261.409,151.136,492.697,-349.828,197.72,295.891,-422.817,231.129,289.37,-241.741,216.115,189.786
232,0,6.23755,426.545,1171.7,6.96091,158.333,1151.63,-199.991,362.143,1231.69,-188.524,228.785,1230.24,16.1347,500.299,896.38,57.6974,470.391,702.901,37.626,480.011,529.359,84.1951,433.066,265.458,34.3134,385.212,214.722,239.609,420.707,247.128,-112.645,114.419,867.775,-171.312,149.33,684.714,-267.688,150.97,494.95,-359.528,197.23,299.641,-432.535,230.62,295.048,-255.245,215.818,189.517
233,0,8.56599,427.426,1171.58,7.47281,159.205,1151.91,-198.397,364.087,1231.28,-187.629,230.594,1229.92,13.8498,501.393,894.265,55.2265,470.283,701.117,40.3069,479.334,526.571,97.2393,431.437,264.064,48.6452,383.747,212.089,254.028,418.21,251.652,-114.114,115.25,868.261,-173.586,149.521,685.154,-273.222,150.768,496.847,-368.834,196.658,303.307,-441.851,230.036,300.737,-268.862,215.564,189.105
234,0,11.0216,428.375,1171.02,8.14101,160.125,1151.87,-196.69,366.138,1230.37,-186.651,232.467,1229.11,11.5775,502.481,891.595,53.4097,470.194,699.142,42.7039,478.66,523.85,107.704,429.75,262.776,60.0505,382.238,210.033,265.447,415.757,255.085,-114.782,116.13,868.252,-174.793,149.715,685.007,-277.971,150.525,498.358,-377.702,196.003,306.894,-450.691,229.375,306.457,-282.618,215.355,188.539
235,0,13.561,429.395,1170.04,8.95001,161.101,1151.48,-194.901,368.27,1228.99,-185.608,234.386,1227.8,9.52682,503.489,888.505,52.345,470.102,697.031,44.8286,477.997,521.203,115.433,428.03,261.445,68.33,380.726,208.417,273.695,413.359,256.993,-114.619,117.059,867.693,-174.901,149.903,684.224,-281.896,150.235,499.467,-386.079,195.264,310.42,-458.967,228.638,312.242,-296.519,215.185,187.832
236,0,16.1366,430.491,1168.66,9.88049,162.142,1150.72,-193.068,370.455,1227.16,-184.52,236.332,1225.98,7.91343,504.351,885.15,52.0933,469.992,694.836,46.6896,477.352,518.639,120.353,426.302,259.958,73.3895,379.247,207.125,278.711,411.014,257.065,-113.609,118.034,866.539,-173.896,150.074,682.768,-284.959,149.894,500.167,-393.908,194.444,313.913,-466.585,227.826,318.137,-310.53,215.038,187.033
237,0,18.699,431.665,1166.93,10.9096,163.253,1149.56,-191.231,372.661,1224.89,-183.408,238.284,1223.68,6.94069,505.021,881.697,52.6735,469.857,692.597,48.2914,476.738,516.161,122.483,424.587,258.246,75.2469,377.834,206.07,280.545,408.718,255.159,-111.749,119.046,864.765,-171.775,150.214,680.619,-287.129,149.497,500.467,-401.125,193.549,317.415,-473.44,226.944,324.194,-324.563,214.882,186.233
238,0,21.1982,432.917,1164.88,12.0118,164.441,1148,-189.432,374.852,1222.23,-182.295,240.222,1220.91,6.7783,505.48,878.307,54.0612,469.699,690.345,49.6333,476.17,513.773,121.93,422.905,256.293,74.0314,376.513,205.19,279.364,406.471,251.323,-109.049,120.083,862.362,-168.551,150.309,677.779,-288.374,149.04,500.387,-407.662,192.588,320.976,-479.427,226.002,330.473,-338.467,214.671,185.566
239,0,23.5866,434.246,1162.57,13.1589,165.707,1146.02,-187.711,376.993,1219.23,-181.202,242.128,1217.71,7.54189,505.739,875.126,56.189,469.53,688.102,50.7078,475.664,511.479,118.881,421.275,254.125,69.9745,375.302,204.452,275.438,404.282,245.798,-105.533,121.13,859.349,-164.252,150.345,674.271,-288.668,148.521,499.966,-413.445,191.574,324.652,-484.443,225.016,337.029,-352.026,214.345,185.201
240,0,25.8201,435.648,1160.06,14.3219,167.051,1143.66,-186.109,379.049,1215.93,-180.151,243.985,1214.12,9.2762,505.837,872.271,58.9491,469.368,685.879,51.5,475.239,509.281,113.591,419.715,251.805,63.3935,374.212,203.837,269.117,402.17,238.986,-101.241,122.169,855.771,-158.92,150.309,670.144,-287.993,147.941,499.254,-418.401,190.522,328.505,-488.393,224.01,343.911,-364.967,213.838,185.331
241,0,27.8608,437.115,1157.39,15.4709,168.467,1140.93,-184.661,380.99,1212.4,-179.165,245.778,1210.19,11.9446,505.837,869.816,62.198,469.237,683.679,51.9868,474.911,507.18,106.366,418.244,249.421,54.6682,373.25,203.345,260.81,400.168,231.402,-96.2302,123.18,851.696,-152.613,150.19,665.472,-286.335,147.302,498.316,-422.455,189.453,332.59,-491.198,223.015,351.15,-376.98,213.083,186.154
242,0,29.6778,438.64,1154.64,16.5771,169.945,1137.87,-183.396,382.791,1208.71,-178.26,247.496,1205.99,15.4272,505.819,867.789,65.7639,469.167,681.5,52.1364,474.694,505.176,97.5409,416.882,247.069,44.2149,372.414,202.976,250.944,398.315,223.602,-90.5722,124.141,847.22,-145.398,149.98,660.353,-283.689,146.611,497.227,-425.535,188.389,336.955,-492.796,222.07,358.756,-387.743,212.024,187.84
243,0,31.2488,440.208,1151.86,17.6129,171.474,1134.54,-182.339,384.433,1204.92,-177.457,249.131,1201.58,19.5274,505.862,866.174,69.4549,469.185,679.334,51.9095,474.602,503.265,87.4603,415.645,244.843,32.4581,371.699,202.734,239.938,396.65,216.115,-84.3566,125.033,842.456,-137.351,149.676,654.908,-280.061,145.874,496.067,-427.572,187.357,341.635,-493.154,221.219,366.712,-396.957,210.628,190.513
244,0,32.5599,441.808,1149.1,18.5534,173.036,1130.99,-181.505,385.906,1201.12,-176.768,250.678,1197.04,23.9886,506.042,864.91,73.0676,469.32,677.17,51.2596,474.64,501.442,76.4567,414.551,242.82,19.8041,371.099,202.616,228.17,395.209,209.381,-77.6891,125.838,837.536,-128.556,149.278,649.273,-275.464,145.105,494.925,-428.506,186.383,346.642,-492.261,220.507,374.966,-404.379,208.894,194.222
245,0,33.6063,443.423,1146.43,19.3766,174.615,1127.31,-180.9,387.21,1197.37,-176.206,252.137,1192.46,28.5165,506.416,863.904,76.3979,469.593,674.998,50.1354,474.811,499.701,64.8344,413.612,241.057,6.61906,370.601,202.612,215.957,394.015,203.705,-70.6888,126.542,832.595,-119.098,148.791,643.598,-269.92,144.317,493.884,-428.283,185.494,351.965,-490.138,219.976,383.432,-409.84,206.86,198.926
246,0,34.3911,445.038,1143.89,20.0647,176.19,1123.58,-180.525,388.351,1193.75,-175.781,253.51,1187.92,32.8059,507.018,863.047,79.2494,470.02,672.811,48.4833,475.111,498.033,52.8556,412.836,239.581,-6.78771,370.192,202.706,203.547,393.075,199.244,-63.4853,127.135,827.771,-109.065,148.227,638.039,-263.464,143.528,493.027,-426.863,184.716,357.565,-486.832,219.659,391.993,-413.264,204.603,204.49
247,0,34.9246,446.638,1141.52,20.6036,177.742,1119.88,-180.372,389.346,1190.33,-175.498,254.802,1183.49,36.5682,507.858,862.225,81.4424,470.607,670.606,46.2501,475.533,496.429,40.7325,412.223,238.395,-20.1731,369.858,202.877,191.116,392.38,196.003,-56.2131,127.613,823.198,-98.5428,147.6,632.753,-256.138,142.757,492.424,-424.217,184.068,363.375,-482.411,219.575,400.497,-414.653,202.24,210.692
248,0,35.2224,448.21,1139.37,20.9838,179.253,1116.3,-180.425,390.216,1187.17,-175.36,256.02,1179.27,39.5555,508.922,861.334,82.8215,471.352,668.384,43.3864,476.06,494.882,28.6241,411.766,237.479,-33.3634,369.583,203.101,178.774,391.905,193.867,-49.0056,127.981,818.992,-87.6117,146.93,627.887,-247.991,142.025,492.135,-420.329,183.567,369.298,-476.962,219.727,408.772,-414.068,199.906,217.25
249,0,35.3041,449.742,1137.45,21.1997,180.706,1112.94,-180.666,390.987,1184.34,-175.368,257.172,1175.33,41.5787,510.177,860.296,83.2612,472.244,666.155,39.8494,476.676,493.388,16.6372,411.451,236.797,-46.2508,369.352,203.356,166.58,391.612,192.637,-41.9873,128.247,815.255,-76.3477,146.242,623.581,-239.079,141.353,492.202,-415.199,183.223,375.212,-470.584,220.097,416.627,-411.594,197.753,223.849
250,0,35.191,451.224,1135.79,21.2503,182.089,1109.87,-181.071,391.688,1181.87,-175.518,258.269,1171.75,42.5175,511.575,859.065,82.6695,473.26,663.936,35.6056,477.358,491.945,4.83156,411.261,236.304,-58.7862,369.153,203.62,154.552,391.457,192.075,-35.2661,128.425,812.068,-64.8211,145.562,619.953,-229.463,140.762,492.648,-408.839,183.037,380.977,-463.377,220.651,423.863,-407.302,195.922,230.178
251,0,34.905,452.647,1134.4,21.138,183.391,1107.17,-181.616,392.348,1179.81,-175.807,259.317,1168.58,42.3224,513.062,857.631,80.9899,474.371,661.75,30.6327,478.083,490.558,-6.7727,411.17,235.954,-70.968,368.974,203.88,142.683,391.393,191.938,-28.9267,128.533,809.49,-53.0962,144.918,617.104,-219.209,140.271,493.478,-401.278,183.006,386.436,-455.437,221.337,430.281,-401.224,194.536,235.962
252,0,34.4664,454.006,1133.29,20.8689,184.606,1104.9,-182.274,392.992,1178.19,-176.227,260.325,1165.88,41.0084,514.583,856.019,78.2006,475.542,659.627,24.9209,478.827,489.236,-18.1861,411.154,235.705,-82.8299,368.808,204.13,130.951,391.375,192.017,-23.0246,128.591,807.562,-41.2329,144.34,615.111,-208.381,139.896,494.675,-392.557,183.118,391.427,-446.849,222.097,435.694,-393.334,193.682,240.992
253,0,33.8932,455.297,1132.46,20.4521,185.73,1103.11,-183.024,393.642,1177.03,-176.77,261.297,1163.7,38.6434,516.084,854.286,74.3126,476.735,657.603,18.4733,479.568,487.993,-29.4407,411.188,235.523,-94.4287,368.652,204.37,119.327,391.365,192.147,-17.5827,128.619,806.306,-29.2879,143.856,614.024,-197.045,139.651,496.201,-382.728,183.356,395.793,-437.679,222.87,439.933,-383.557,193.404,245.137
254,0,33.2005,456.518,1131.9,19.8991,186.763,1101.85,-183.842,394.314,1176.35,-177.427,262.239,1162.06,35.3327,517.52,852.506,69.3652,477.908,655.714,11.3054,480.283,486.85,-40.5812,411.249,235.388,-105.833,368.509,204.61,107.779,391.333,192.221,-12.5907,128.634,805.73,-17.3169,143.493,613.871,-185.264,139.543,498.004,-371.852,183.7,399.382,-427.975,223.6,442.85,-371.79,193.699,248.349
255,0,32.3997,457.666,1131.59,19.2239,187.707,1101.12,-184.711,395.015,1176.13,-178.185,263.149,1161,31.203,518.853,850.767,63.4214,479.022,654,3.44379,480.955,485.831,-51.6576,411.321,235.29,-117.114,368.383,204.866,96.277,391.259,192.185,-8.00721,128.651,805.829,-5.37646,143.272,614.656,-173.099,139.577,500.015,-359.998,184.128,402.065,-417.761,224.246,444.332,-357.935,194.516,250.653
256,0,31.4989,458.742,1131.54,18.4422,188.566,1100.95,-185.615,395.747,1176.38,-179.032,264.025,1160.51,26.3873,520.053,849.156,56.5609,480.044,652.497,-5.07506,481.568,484.962,-62.719,411.389,235.232,-128.338,368.283,205.161,84.7938,391.132,192.025,-3.76538,128.68,806.593,6.47387,143.211,616.358,-160.609,139.75,502.154,-347.236,184.616,403.733,-407.037,224.783,444.295,-341.937,195.758,252.13
257,0,30.5038,459.743,1131.71,17.5713,189.344,1101.31,-186.545,396.503,1177.07,-179.956,264.863,1160.59,21.0133,521.1,847.754,48.8748,480.944,651.238,-14.207,482.112,484.271,-73.8095,411.445,235.227,-139.561,368.22,205.52,73.304,390.947,191.76,0.219911,128.728,808.003,18.1698,143.322,618.937,-147.849,140.056,504.336,-333.633,185.143,404.307,-395.784,225.202,442.692,-323.815,197.293,252.898
258,0,29.4176,460.669,1132.09,16.63,190.047,1102.19,-187.492,397.269,1178.19,-180.942,265.655,1161.24,15.1947,521.978,846.626,40.4594,481.701,650.253,-23.9018,482.579,483.785,-84.9653,411.489,235.295,-150.829,368.203,205.973,61.785,390.709,191.421,4.04258,128.795,810.037,29.6416,143.609,622.334,-134.87,140.482,506.471,-319.253,185.687,403.74,-383.964,225.516,439.512,-303.674,198.963,253.087
259,0,28.2425,461.519,1132.66,15.6379,190.678,1103.56,-188.451,398.027,1179.7,-181.975,266.39,1162.42,9.02707,522.679,845.818,31.4109,482.303,649.564,-34.1057,482.965,483.53,-96.2131,411.519,235.46,-162.171,368.242,206.551,50.2164,390.425,191.047,7.79539,128.881,812.668,40.8134,144.069,626.473,-121.723,141.012,508.477,-304.152,186.231,402.019,-371.524,225.747,434.78,-281.707,200.605,252.823
260,0,26.9807,462.29,1133.4,14.616,191.242,1105.38,-189.42,398.753,1181.57,-183.04,267.057,1164.1,2.58623,523.198,845.36,21.8217,482.746,649.184,-44.762,483.267,483.528,-107.57,411.54,235.751,-173.608,368.342,207.284,38.5807,390.107,190.672,11.5604,128.981,815.864,51.6037,144.693,631.263,-108.458,141.628,510.275,-288.373,186.758,399.16,-358.401,225.926,428.555,-258.175,202.066,252.211
261,0,25.6349,462.98,1134.3,13.586,191.744,1107.61,-190.398,399.421,1183.75,-184.118,267.642,1166.24,-4.07031,523.534,845.262,11.7775,483.035,649.123,-55.8133,483.486,483.798,-119.045,411.555,236.194,-185.148,368.502,208.202,26.8628,389.765,190.32,15.4008,129.088,819.586,61.9272,145.465,636.604,-95.1222,142.307,511.801,-271.948,187.256,395.215,-344.527,226.085,420.929,-233.382,203.222,251.329
262,0,24.2094,463.587,1135.33,12.5706,192.184,1110.18,-191.383,400.004,1186.21,-185.193,268.133,1168.79,-10.9007,523.689,845.52,1.3563,483.18,649.379,-67.2019,483.622,484.353,-130.638,411.569,236.815,-196.787,368.719,209.332,15.0506,389.413,190.006,19.3547,129.194,823.79,71.6961,146.363,642.386,-81.7664,143.028,513.006,-254.899,187.713,390.261,-329.831,226.251,412.022,-207.635,203.992,250.225
263,0,22.7105,464.11,1136.49,11.5928,192.566,1113.05,-192.375,400.476,1188.91,-186.245,268.513,1171.69,-17.8751,523.665,846.115,-9.37197,483.198,649.948,-78.8703,483.678,485.202,-142.343,411.58,237.635,-208.52,368.98,210.699,3.13502,389.062,189.735,23.4316,129.291,828.421,80.8231,147.362,648.493,-68.4421,143.766,513.857,-237.235,188.12,384.404,-314.249,226.441,401.982,-181.222,204.345,248.92
264,0,21.1473,464.547,1137.75,10.6765,192.891,1116.17,-193.37,400.812,1191.78,-187.256,268.771,1174.89,-24.9713,523.466,847.023,-20.344,483.108,650.818,-90.7615,483.654,486.347,-154.149,411.587,238.671,-220.333,369.27,212.324,-8.89024,388.721,189.505,27.6122,129.371,833.415,89.2245,148.435,654.806,-55.2031,144.501,514.34,-218.963,188.47,377.77,-297.727,226.663,390.979,-154.383,204.301,247.419
265,0,19.5311,464.898,1139.12,9.84542,193.163,1119.48,-194.366,400.989,1194.8,-188.204,268.894,1178.32,-32.1709,523.099,848.212,-31.5013,482.928,651.972,-102.819,483.551,487.786,-166.041,411.583,239.937,-232.211,369.567,214.224,-21.0292,388.396,189.307,31.8505,129.425,838.7,96.8231,149.552,661.205,-42.1062,145.212,514.46,-200.085,188.758,370.502,-280.224,226.912,379.202,-127.297,203.922,245.714
266,0,17.8764,465.165,1140.57,9.12345,193.382,1122.93,-195.355,400.989,1197.92,-189.07,268.87,1181.91,-39.4549,522.573,849.646,-42.7871,482.677,653.389,-114.985,483.368,489.511,-178.003,411.557,241.442,-244.136,369.844,216.413,-33.2839,388.089,189.132,36.0783,129.446,844.192,103.552,150.686,667.571,-29.211,145.883,514.238,-180.612,188.985,362.759,-261.722,227.176,366.853,-100.088,203.3,243.804
267,0,16.1999,465.352,1142.11,8.53387,193.553,1126.48,-196.329,400.798,1201.09,-189.832,268.692,1185.61,-46.8001,521.897,851.285,-54.1445,482.368,655.044,-127.203,483.105,491.51,-190.014,411.497,243.188,-256.091,370.077,218.9,-45.6553,387.798,188.968,40.2117,129.425,849.801,109.356,151.812,673.793,-16.5792,146.501,513.709,-160.564,189.151,354.706,-242.224,227.442,354.143,-72.8293,202.535,241.698
268,0,14.5204,465.461,1143.71,8.09907,193.68,1130.06,-197.276,400.406,1204.27,-190.471,268.351,1189.35,-54.1762,521.084,853.089,-65.5125,482.012,656.911,-139.413,482.76,493.764,-202.056,411.388,245.175,-268.056,370.236,221.69,-58.1438,387.519,188.805,44.1585,129.354,855.428,114.196,152.908,679.762,-4.27461,147.058,512.917,-139.977,189.266,346.512,-221.767,227.697,341.284,-45.5621,201.721,239.432
269,0,12.8586,465.5,1145.36,7.83994,193.768,1133.66,-198.182,399.808,1207.44,-190.968,267.845,1193.08,-61.5436,520.15,855.014,-76.8248,481.613,658.96,-151.555,482.33,496.252,-214.108,411.213,247.398,-280.014,370.299,224.781,-70.7493,387.243,188.636,47.826,129.225,860.973,118.05,153.956,685.381,7.63846,147.552,511.913,-118.914,189.341,338.346,-200.417,227.936,328.486,-18.3173,200.933,237.067
270,0,11.2361,465.475,1147.06,7.77541,193.823,1137.21,-199.031,399.004,1210.54,-191.304,267.171,1196.73,-68.8525,519.113,857.017,-88.0078,481.17,661.158,-163.566,481.814,498.948,-226.15,410.96,249.851,-291.944,370.245,228.169,-83.4714,386.959,188.455,51.1281,129.03,866.332,120.915,154.942,690.564,19.0959,147.986,510.748,-97.4619,189.396,330.365,-178.277,228.162,315.949,8.86532,200.215,234.701
271,0,9.67524,465.395,1148.78,7.92183,193.851,1140.68,-199.805,397.998,1213.54,-191.462,266.331,1200.25,-76.0433,517.994,859.056,-98.9797,480.681,663.471,-175.383,481.214,501.824,-238.162,410.619,252.524,-303.829,370.061,231.845,-96.3093,386.654,188.258,53.992,128.763,871.403,122.807,155.858,695.236,30.035,148.368,509.473,-75.739,189.452,322.717,-155.487,228.392,303.855,35.9197,199.586,232.461
272,0,8.19834,465.267,1150.5,8.29253,193.861,1144.03,-200.483,396.797,1216.42,-191.428,265.328,1203.58,-83.0488,516.812,861.093,-109.651,480.138,665.863,-186.938,480.531,504.846,-250.122,410.184,255.404,-315.652,369.743,235.794,-109.261,386.317,188.047,56.3631,128.421,876.091,123.763,156.701,699.337,40.396,148.71,508.128,-53.8943,189.539,315.528,-132.226,228.654,292.364,62.7426,199.04,230.495
273,0,6.82711,465.1,1152.2,8.8973,193.858,1147.22,-201.045,395.413,1219.15,-191.191,264.167,1206.69,-89.7963,515.591,863.092,-119.926,479.535,668.296,-198.165,479.772,507.979,-262.01,409.658,258.476,-327.394,369.295,240,-122.324,385.938,187.823,58.2085,128.002,880.304,123.837,157.47,702.819,50.123,149.032,506.746,-32.1068,189.687,308.898,-108.707,228.983,281.607,89.1888,198.565,228.968
274,0,5.58213,464.899,1153.85,9.74202,193.85,1150.22,-201.471,393.86,1221.68,-190.743,262.858,1209.54,-96.2113,514.351,865.024,-129.704,478.865,670.727,-208.995,478.945,511.186,-273.804,409.05,261.726,-339.04,368.732,244.444,-135.492,385.508,187.593,59.5189,127.513,883.965,123.103,158.17,705.653,59.1654,149.352,505.35,-10.5823,189.927,302.899,-85.1778,229.421,271.684,115.072,198.15,228.034
275,0,4.48242,464.67,1155.41,10.8284,193.841,1152.99,-201.741,392.154,1224,-190.079,261.41,1212.08,-102.221,513.11,866.865,-138.881,478.125,673.115,-219.359,478.065,514.426,-285.481,408.376,265.135,-350.573,368.077,249.106,-148.757,385.024,187.363,60.309,126.964,887.008,121.65,158.807,707.823,67.4788,149.693,503.948,10.4513,190.29,297.571,-61.9136,230.007,262.659,140.173,197.8,227.829
276,0,3.54492,464.417,1156.85,12.1537,193.836,1155.5,-201.838,390.315,1226.07,-189.198,259.835,1214.28,-107.755,511.885,868.597,-147.358,477.319,675.411,-229.19,477.149,517.659,-297.015,407.659,268.684,-361.979,367.363,253.966,-162.11,384.486,187.143,60.6162,126.371,889.381,119.585,159.391,709.328,75.0258,150.079,502.539,30.7498,190.805,292.92,-39.2146,230.775,254.559,164.247,197.54,228.44
277,0,2.78414,464.139,1158.14,13.7108,193.834,1157.72,-201.747,388.363,1227.87,-188.104,258.147,1216.14,-112.752,510.688,870.205,-155.035,476.455,677.567,-238.421,476.218,520.842,-308.38,406.928,272.351,-373.236,366.626,259.002,-175.538,383.902,186.938,60.4988,125.757,891.053,117.021,159.932,710.182,81.7768,150.531,501.112,50.0606,191.494,288.919,-17.3967,231.749,247.38,187.035,197.417,229.893
278,0,2.21182,463.834,1159.24,15.488,193.834,1159.61,-201.456,386.319,1229.37,-186.806,256.361,1217.61,-117.154,509.528,871.672,-161.824,475.547,679.531,-246.988,475.296,523.93,-319.544,406.216,276.112,-384.323,365.907,264.196,-189.026,383.279,186.755,60.0324,125.152,892.009,114.085,160.441,710.414,87.7108,151.068,499.647,68.1302,192.37,285.511,3.2163,232.938,241.085,208.278,197.494,232.134
279,0,1.83665,463.498,1160.11,17.4695,193.832,1161.16,-200.962,384.207,1230.55,-185.317,254.493,1218.7,-120.912,508.409,872.983,-167.643,474.617,681.249,-254.829,474.41,526.881,-330.47,405.557,279.944,-395.209,365.25,269.53,-202.56,382.633,186.592,59.3058,124.587,892.255,110.906,160.93,710.062,92.8154,151.704,498.12,84.7132,193.44,282.614,22.3026,234.337,235.616,227.721,197.837,235.022
280,0,1.66403,463.12,1160.72,19.6352,193.82,1162.33,-200.262,382.051,1231.37,-183.654,252.559,1219.4,-123.982,507.335,874.111,-172.425,473.694,682.665,-261.885,473.588,529.652,-341.116,404.988,283.821,-405.852,364.693,274.992,-216.126,381.977,186.444,58.4166,124.096,891.821,107.615,161.41,709.177,97.0877,152.448,496.506,99.5805,194.698,280.13,39.5531,235.924,230.894,245.125,198.508,238.328
281,0,1.69585,462.692,1161.04,21.9611,193.786,1163.11,-199.362,379.873,1231.81,-181.841,250.578,1219.7,-126.327,506.304,875.024,-176.116,472.81,683.724,-268.103,472.86,532.205,-351.432,404.54,287.717,-416.2,364.273,280.575,-229.709,381.326,186.3,57.4662,123.709,890.753,104.342,161.887,707.818,100.534,153.302,494.781,112.528,196.131,277.949,54.6829,237.663,226.833,260.272,199.544,241.745
282,0,1.93036,462.201,1161.07,24.42,193.716,1163.49,-198.275,377.699,1231.87,-179.903,248.569,1219.61,-127.913,505.314,875.678,-178.675,471.999,684.371,-273.431,472.252,534.501,-361.362,404.245,291.613,-426.184,364.023,286.276,-243.301,380.693,186.144,56.5547,123.452,889.12,101.208,162.368,706.049,103.169,154.262,492.924,123.386,197.712,275.961,67.4431,239.506,223.345,272.972,200.955,244.917
283,0,2.36206,461.631,1160.77,26.9813,193.595,1163.46,-197.02,375.554,1231.51,-177.872,246.549,1219.15,-128.708,504.365,876.019,-180.078,471.299,684.559,-277.824,471.791,536.511,-370.84,404.127,295.493,-435.721,363.965,292.101,-256.893,380.085,185.958,55.7752,123.341,887.005,98.3233,162.854,703.942,105.017,155.313,490.925,132.024,199.409,274.064,77.6333,241.397,220.345,283.072,202.719,247.467
284,0,2.98173,460.97,1160.14,29.6119,193.404,1163.03,-195.62,373.46,1230.74,-175.78,244.539,1218.32,-128.689,503.455,875.987,-180.317,470.743,684.243,-281.24,471.501,538.211,-379.794,404.207,299.35,-444.712,364.117,298.066,-270.483,379.506,185.728,55.2095,123.379,884.506,95.7823,163.341,701.565,106.111,156.436,488.779,138.358,201.18,272.172,85.1118,243.278,217.76,290.46,204.777,249.042
285,0,3.77644,460.202,1159.2,32.2766,193.125,1162.21,-194.106,371.44,1229.53,-173.662,242.556,1217.17,-127.833,502.588,875.518,-179.397,470.364,683.393,-283.644,471.4,539.583,-388.144,404.498,303.189,-453.046,364.49,304.193,-284.063,378.951,185.452,54.9229,123.555,881.729,93.6601,163.819,698.992,106.488,157.604,486.493,142.355,202.979,270.22,89.8053,245.09,215.529,295.079,207.045,249.358
286,0,4.72976,459.315,1157.94,34.9387,192.739,1161.02,-192.514,369.516,1227.91,-171.557,240.619,1215.7,-126.128,501.768,874.557,-177.337,470.188,681.987,-285.006,471.505,540.622,-395.808,405.007,307.028,-460.601,365.084,310.516,-297.624,378.414,185.143,54.9606,123.842,878.781,92.0082,164.274,696.289,106.194,158.783,484.083,144.035,204.758,268.167,91.7148,246.779,213.608,296.936,209.42,248.237
287,0,5.82207,458.298,1156.4,37.5605,192.228,1159.49,-190.881,367.706,1225.88,-169.501,238.744,1213.97,-123.574,501.006,873.059,-174.169,470.232,680.023,-285.304,471.825,541.331,-402.7,405.735,310.9,-467.255,365.896,317.073,-311.141,377.884,184.839,55.3444,124.198,875.77,90.8515,164.686,693.519,105.276,159.938,481.573,143.472,206.467,266,90.9184,248.297,211.963,296.111,211.793,245.639
288,0,7.03101,457.144,1154.6,40.1044,191.578,1157.65,-189.249,366.026,1223.45,-167.53,236.948,1212.01,-120.183,500.314,871.001,-169.936,470.508,677.515,-284.522,472.367,541.726,-408.738,406.674,314.852,-472.887,366.91,323.905,-324.568,377.355,184.606,56.0703,124.57,872.792,90.1865,165.033,690.739,103.783,161.028,478.998,140.789,208.06,263.73,87.5692,249.607,210.574,292.758,214.06,241.671
289,0,8.332,455.849,1152.58,42.5331,190.777,1155.56,-187.657,364.488,1220.68,-165.678,235.244,1209.86,-115.986,499.708,868.389,-164.692,471.016,674.499,-282.652,473.129,541.833,-413.842,407.812,318.943,-477.387,368.105,331.052,-337.823,376.83,184.538,57.1081,124.896,869.93,89.9797,165.289,687.995,101.764,162.017,476.392,136.156,209.496,261.386,81.888,250.681,209.427,287.109,216.127,236.577
290,0,9.69894,454.415,1150.39,44.8112,189.817,1153.25,-186.145,363.098,1217.58,-163.976,233.642,1207.57,-111.035,499.206,865.261,-158.497,471.75,671.03,-279.699,474.106,541.69,-417.943,409.126,323.241,-480.662,369.447,338.548,-350.783,376.324,184.756,58.4012,125.115,867.25,90.1679,165.426,685.324,99.2616,162.868,473.795,129.777,210.742,259.016,74.1517,251.504,208.512,279.459,217.927,230.709
291,0,11.105,452.848,1148.08,46.9053,188.696,1150.8,-184.748,361.86,1214.22,-162.452,232.152,1205.19,-105.406,498.82,861.694,-151.421,472.693,667.186,-275.674,475.287,541.344,-420.981,410.587,327.812,-482.646,370.892,346.41,-363.273,375.873,185.395,59.8689,125.165,864.795,90.6603,165.42,682.752,96.3139,163.55,471.245,121.887,211.77,256.674,64.6771,252.072,207.816,270.147,219.412,224.482
292,0,12.5232,451.159,1145.7,48.7855,187.415,1148.24,-183.496,360.771,1210.67,-161.127,230.778,1202.77,-99.1972,498.563,857.792,-143.536,473.824,663.062,-270.602,476.653,540.852,-422.908,412.159,332.72,-483.3,372.386,354.638,-375.065,375.531,186.597,61.4092,124.995,862.59,91.3414,165.248,680.294,92.9489,164.039,468.774,112.734,212.567,254.415,53.8029,252.39,207.327,259.534,220.564,218.317
293,0,13.9275,449.361,1143.31,50.4257,185.983,1145.65,-182.415,359.822,1206.99,-160.019,229.522,1200.36,-92.5271,498.439,853.69,-134.921,475.113,658.77,-264.519,478.184,540.276,-423.69,413.799,338.012,-482.62,373.867,363.204,-385.879,375.376,188.488,62.9034,124.567,860.635,92.0759,164.894,677.956,89.1846,164.321,466.409,102.568,213.126,252.29,41.8693,252.475,207.026,247.976,221.387,212.593
294,0,15.2933,447.476,1140.98,51.8047,184.412,1143.09,-181.521,359,1203.25,-159.138,228.384,1198.02,-85.5312,498.443,849.537,-125.655,476.528,654.436,-257.472,479.852,539.682,-423.308,415.458,343.714,-480.634,375.264,372.052,-395.399,375.497,191.166,64.222,123.859,858.915,92.7152,164.349,675.734,85.0277,164.39,464.171,91.6337,213.451,250.343,29.2005,252.352,206.886,235.797,221.903,207.598
295,0,16.5982,445.524,1138.75,52.9065,182.721,1140.61,-180.825,358.29,1199.55,-158.49,227.358,1195.78,-78.3546,498.566,845.489,-115.819,478.033,650.191,-249.521,481.625,539.136,-421.756,417.087,349.823,-477.4,376.507,381.093,-403.283,375.991,194.684,65.2309,122.868,857.398,93.1045,163.611,673.618,80.4735,164.249,462.071,80.1539,213.558,248.6,16.088,252.052,206.881,223.271,222.15,203.511
296,0,17.8224,443.532,1136.69,53.721,180.931,1138.27,-180.329,357.673,1195.96,-158.072,226.436,1193.7,-71.1444,498.785,841.696,-105.495,479.593,646.168,-240.734,483.468,538.704,-419.041,418.635,356.304,-473.006,377.53,390.206,-409.192,376.945,199.037,65.7987,121.61,856.045,93.0906,162.686,671.594,75.5079,163.912,460.116,68.3246,213.467,247.08,2.77935,251.613,206.977,210.614,222.174,200.391
297,0,18.9493,441.524,1134.84,54.2439,179.066,1136.11,-180.028,357.126,1192.57,-157.88,225.611,1191.81,-64.0402,499.074,838.289,-94.7612,481.171,642.499,-231.192,485.342,538.445,-415.18,420.057,363.082,-467.557,378.28,399.245,-412.812,378.424,204.156,65.8047,120.114,854.812,92.5292,161.592,669.65,70.1092,163.4,458.306,56.3082,213.209,245.783,-10.5293,251.073,207.144,197.976,222.026,198.191
298,0,19.9656,439.526,1133.24,54.4768,177.153,1134.17,-179.911,356.629,1189.46,-157.901,224.868,1190.16,-57.1653,499.402,835.374,-83.6964,482.735,639.304,-220.98,487.206,538.412,-410.201,421.313,370.051,-461.171,378.72,408.036,-413.878,380.455,209.912,65.1454,118.426,853.657,91.2925,160.352,667.772,64.2509,162.74,456.639,44.2305,212.815,244.702,-23.6958,250.474,207.351,185.452,221.756,196.787
299,0,20.8614,437.563,1131.92,54.4269,175.218,1132.49,-179.964,356.164,1186.69,-158.121,224.197,1188.77,-50.6185,499.736,833.028,-72.3756,484.252,636.69,-210.19,489.018,538.646,-404.139,422.375,377.068,-453.97,378.839,416.395,-412.202,383.017,216.121,63.742,116.6,852.545,89.2747,158.997,665.954,57.9055,161.966,455.109,32.18,212.321,243.82,-36.6299,249.854,207.575,173.085,221.41,196.003
300,0,21.6302,435.656,1130.91,54.1065,173.289,1131.08,-180.164,355.713,1184.32,-158.521,223.584,1187.67,-44.4673,500.046,831.299,-60.8714,485.696,634.747,-198.92,490.739,539.178,-397.038,423.231,383.966,-446.071,378.654,424.127,-407.681,386.034,222.559,61.5447,114.696,851.451,86.3964,157.564,664.196,51.0476,161.11,453.715,20.211,211.763,243.115,-49.2879,249.247,207.797,160.885,221.026,195.649
301,0,22.269,433.826,1130.22,53.5323,171.39,1129.96,-180.492,355.264,1182.42,-159.081,223.017,1186.87,-38.745,500.307,830.205,-49.2536,487.041,633.543,-187.267,492.327,540.023,-388.945,423.878,390.557,-437.58,378.204,431.036,-400.313,389.379,228.983,58.5372,112.776,850.363,82.6068,156.091,662.505,43.657,160.209,452.455,8.34701,211.173,242.565,-61.665,248.682,208.007,148.832,220.636,195.548
302,0,22.7775,432.088,1129.85,52.7245,169.544,1129.14,-180.924,354.808,1181,-159.78,222.484,1186.39,-33.4498,500.502,829.743,-37.5895,488.266,633.123,-175.326,493.749,541.185,-379.913,424.332,396.645,-428.584,377.557,436.938,-390.189,392.882,235.143,54.7373,110.898,849.283,77.8846,154.621,660.897,35.7217,159.294,451.332,-3.41299,210.582,242.148,-73.7859,248.18,208.204,136.895,220.259,195.555
