Trajectories
100
,,Subj:LASI,,,Subj:RASI,,,Subj:LPSI,,,Subj:RPSI,,,Subj:LTHI,,,Subj:LKNE,,,Subj:LTIB,,,Subj:LANK,,,Subj:LHEE,,,Subj:LTOE,,,Subj:RTHI,,,Subj:RKNE,,,Subj:RTIB,,,Subj:RANK,,,Subj:RHEE,,,Subj:RTOE,,,
Frame,Sub Frame,X,Y,Z,X,Y,Z,X,Y,Z,X,Y,Z,X,Y,Z,X,Y,Z,X,Y,Z,X,Y,Z,X,Y,Z,X,Y,Z,X,Y,Z,X,Y,Z,X,Y,Z,X,Y,Z,X,Y,Z,X,Y,Z
,,mm,mm,mm,mm,mm,mm,mm,mm,mm,mm,mm,mm,mm,mm,mm,mm,mm,mm,mm,mm,mm,mm,mm,mm,mm,mm,mm,mm,mm,mm,mm,mm,mm,mm,mm,mm,mm,mm,mm,mm,mm,mm,mm,mm,mm,mm,mm,mm
1,0,118.618,454.526,1129.83,122.256,183.75,1104.86,-91.2192,384.681,1190.73,-78.3378,251.665,1169.96,76.7322,519.497,852.217,110.219,482.524,656.071,49.1406,479.432,488.997,1.30945,404.86,241.488,-65.8242,361.262,211.479,148.31,386.872,191.09,111.357,131.728,816.267,139.118,154.004,626.238,-17.2347,140.201,500.942,-205.93,174.223,400.914,-273.337,211.319,436.115,-188.502,190.519,245.843
2,0,115.932,455.739,1131.77,120.907,184.915,1108.34,-93.2754,384.588,1193.71,-80.079,251.559,1174.17,71.2901,518.786,853.342,101.419,482.124,656.628,38.8638,479.512,490.085,-11.1311,405.92,243.117,-77.5402,362.085,213.22,136.552,386.5,191.008,114.922,131.93,820.533,149.178,155.462,633.205,-5.82532,141.384,504.496,-192.959,174.343,397.08,-263.394,210.35,428.965,-165.945,192.536,245.396
3,0,113.318,456.836,1133.76,119.673,185.978,1111.89,-95.2557,384.386,1196.69,-81.6912,251.397,1178.32,65.8311,518.064,854.596,92.4678,481.668,657.397,28.4853,479.495,491.374,-23.4803,406.846,244.893,-89.2585,362.819,215.174,124.697,386.143,190.924,118.462,132.1,825.016,158.295,156.822,640.003,5.29296,142.489,507.522,-179.293,174.561,392.555,-252.38,209.71,420.866,-142.904,194.176,244.698
4,0,110.778,457.818,1135.78,118.554,186.94,1115.51,-97.1595,384.075,1199.68,-83.174,251.181,1182.41,60.3527,517.327,855.979,83.367,481.155,658.376,18.0061,479.381,492.862,-35.7277,407.631,246.809,-100.979,363.464,217.338,112.745,385.802,190.838,121.973,132.238,829.714,166.468,158.083,646.632,16.1201,143.516,510.02,-164.934,174.877,387.344,-240.295,209.399,411.825,-119.385,195.439,243.75
5,0,108.313,458.684,1137.84,117.551,187.8,1119.22,-98.9852,383.656,1202.67,-84.5268,250.909,1186.45,54.8496,516.574,857.485,74.119,480.588,659.562,7.42889,479.17,494.548,-47.8459,408.258,248.846,-112.701,364.014,219.714,100.693,385.473,190.75,125.447,132.344,834.618,173.697,159.244,653.084,26.6558,144.465,511.994,-149.88,175.29,381.464,-227.136,209.416,401.87,-95.397,196.327,242.556
6,0,105.925,459.435,1139.94,116.665,188.561,1122.99,-100.729,383.132,1205.66,-85.7484,250.583,1190.42,49.3122,515.797,859.105,64.7296,479.966,660.95,-3.24033,478.863,496.428,-59.7843,408.697,250.967,-124.424,364.463,222.3,88.5369,385.152,190.659,128.869,132.417,839.71,179.979,160.3,659.347,36.8999,145.337,513.451,-134.132,175.802,374.948,-212.902,209.758,391.052,-70.9627,196.844,241.125
7,0,103.618,460.072,1142.06,115.898,189.225,1126.82,-102.385,382.507,1208.65,-86.8366,250.201,1194.32,43.7275,514.986,860.824,55.2102,479.293,662.531,-13.9909,478.46,498.495,-71.4697,408.905,253.118,-136.145,364.8,225.094,76.2702,384.834,190.562,132.213,132.459,844.961,185.311,161.248,665.4,46.8513,146.13,514.401,-117.692,176.413,367.855,-197.589,210.419,379.456,-46.1169,197.006,239.473
8,0,101.4,460.595,1144.21,115.255,189.798,1130.71,-103.946,381.788,1211.64,-87.7885,249.764,1198.15,38.0823,514.132,862.624,45.5796,478.571,664.291,-24.806,477.962,500.738,-82.813,408.83,255.236,-147.861,365.012,228.093,63.8856,384.51,190.458,135.442,132.467,850.328,189.69,162.08,671.215,56.5085,146.845,514.864,-100.569,177.121,360.266,-181.205,211.387,367.205,-20.9094,196.835,237.626
9,0,99.2793,461.005,1146.37,114.74,190.283,1134.62,-105.399,380.984,1214.61,-88.6005,249.272,1201.88,32.3662,513.223,864.485,35.8665,477.805,666.211,-35.6615,477.371,503.143,-93.7243,408.423,257.25,-159.566,365.087,231.293,51.3756,384.172,190.342,138.511,132.438,855.755,193.117,162.788,676.753,65.869,147.481,514.866,-82.7805,177.925,352.29,-163.764,212.643,354.456,4.59419,196.374,235.625
10,0,97.2678,461.305,1148.52,114.357,190.688,1138.53,-106.733,380.104,1217.55,-89.2685,248.724,1205.51,26.5771,512.252,866.382,26.1114,476.998,668.266,-46.525,476.693,505.694,-104.133,407.648,259.105,-171.256,365.013,234.686,38.7337,383.813,190.212,141.367,132.368,861.171,195.601,163.365,681.972,74.9288,148.041,514.442,-64.359,178.819,344.057,-145.301,214.16,341.399,30.3133,195.68,233.528
11,0,95.379,461.497,1150.66,114.113,191.019,1142.42,-107.931,379.16,1220.45,-89.7882,248.119,1209,20.7254,511.213,868.293,16.3676,476.154,670.426,-57.3553,475.933,508.368,-114.007,406.495,260.766,-182.923,364.786,238.263,25.9559,383.426,190.065,143.953,132.248,866.492,197.156,163.801,686.821,83.6823,148.524,513.633,-45.356,179.797,335.718,-125.875,215.902,328.247,56.1525,194.825,231.412
12,0,93.6281,461.583,1152.75,114.011,191.286,1146.24,-108.978,378.163,1223.28,-90.1557,247.457,1212.33,14.8378,510.11,870.195,6.70225,475.279,672.657,-68.1032,475.102,511.138,-123.375,404.994,262.237,-194.56,364.406,242.012,13.0415,383.005,189.897,146.213,132.066,871.628,197.811,164.091,691.25,92.1217,148.934,512.49,-25.8472,180.846,327.433,-105.578,217.824,315.221,82.0024,193.894,229.376
13,0,92.0316,461.565,1154.78,114.056,191.496,1149.96,-109.858,377.124,1226.02,-90.368,246.737,1215.46,8.95925,508.948,872.066,-2.80469,474.376,674.918,-78.711,474.209,513.977,-132.336,403.216,263.566,-206.161,363.887,245.921,-0.00613628,382.547,189.71,148.095,131.811,876.482,197.608,164.233,695.209,100.237,149.275,511.066,-5.93744,181.955,319.364,-84.5392,219.874,302.546,107.74,192.975,227.538
14,0,90.6057,461.447,1156.73,114.251,191.655,1153.52,-110.557,376.055,1228.64,-90.4236,245.958,1218.38,3.15269,507.743,873.884,-12.0614,473.451,677.166,-89.1148,473.272,516.851,-141.057,401.273,264.847,-217.722,363.248,249.974,-13.1797,382.051,189.504,149.557,131.467,880.956,196.608,164.228,698.655,108.015,149.553,509.417,14.2364,183.108,311.663,-62.9298,221.992,290.429,133.226,192.155,226.029
15,0,89.3664,461.232,1158.55,114.596,191.77,1156.87,-111.062,374.964,1231.1,-90.3229,245.119,1221.03,-2.50321,506.513,875.627,-20.9669,472.51,679.353,-99.2447,472.307,519.724,-149.757,399.314,266.205,-229.238,362.523,254.156,-26.4684,381.52,189.287,150.571,131.021,884.955,194.89,164.083,701.552,115.44,149.779,507.6,34.5031,184.29,304.464,-40.9658,224.119,279.052,158.308,191.515,224.981
16,0,88.3277,460.922,1160.23,115.091,191.841,1159.96,-111.366,373.858,1233.36,-90.0688,244.22,1223.39,-7.91841,505.276,877.269,-29.4135,471.561,681.426,-109.027,471.335,522.558,-158.68,397.499,267.786,-240.708,361.752,258.451,-39.8586,380.956,189.064,151.125,130.463,888.393,192.554,163.813,703.873,122.494,149.963,505.665,54.6569,185.484,297.872,-18.9072,226.193,268.561,182.814,191.122,224.509
17,0,87.501,460.518,1161.72,115.73,191.871,1162.74,-111.463,372.742,1235.38,-89.6673,243.26,1225.41,-12.9968,504.056,878.781,-37.2912,470.613,683.33,-118.387,470.378,525.311,-168.059,395.986,269.73,-252.128,360.982,262.847,-53.335,380.365,188.845,151.228,129.789,891.194,189.717,163.438,705.608,129.154,150.122,503.659,74.4597,186.679,291.959,2.9443,228.16,259.059,206.549,191.031,224.693
18,0,86.8941,460.023,1163,116.506,191.856,1165.16,-111.357,371.618,1237.11,-89.1276,242.238,1227.07,-17.6421,502.868,880.126,-44.4908,469.679,685.009,-127.246,469.46,527.942,-178.068,394.903,272.145,-263.491,360.262,267.332,-66.881,379.756,188.64,150.91,129.003,893.302,186.513,162.984,706.755,135.395,150.271,501.617,93.645,187.863,286.757,24.2516,229.969,250.604,229.297,191.285,225.558
19,0,86.5106,459.438,1164.02,117.41,191.789,1167.16,-111.053,370.486,1238.51,-88.4622,241.158,1228.32,-21.7632,501.728,881.261,-50.9078,468.775,686.404,-135.531,468.605,530.407,-188.794,394.331,275.09,-274.783,359.641,271.899,-80.4798,379.138,188.456,150.222,128.121,894.679,183.089,162.485,707.33,141.191,150.43,499.567,111.925,189.033,282.256,44.6503,231.582,243.211,250.815,191.914,227.053
20,0,86.3488,458.761,1164.77,118.427,191.661,1168.7,-110.565,369.348,1239.52,-87.6869,240.021,1229.15,-25.2784,500.646,882.136,-56.4459,467.92,687.456,-143.166,467.838,532.662,-200.216,394.294,278.563,-285.978,359.162,276.548,-94.1148,378.52,188.297,149.234,127.166,895.311,179.6,161.977,707.36,146.509,150.62,497.524,129,190.185,278.413,63.7608,232.972,236.854,270.834,192.942,229.046
21,0,86.4016,457.994,1165.19,119.544,191.46,1169.75,-109.912,368.2,1240.1,-86.8208,238.832,1229.53,-28.1181,499.626,882.695,-61.0204,467.135,688.106,-150.082,467.183,534.668,-212.203,394.758,282.502,-297.035,358.86,281.281,-107.771,377.91,188.161,148.033,126.175,895.208,176.204,161.499,706.883,151.32,150.86,495.494,144.567,191.324,275.15,81.2023,234.125,231.473,289.067,194.383,231.323
22,0,86.6562,457.136,1165.27,120.74,191.171,1170.27,-109.118,367.043,1240.21,-85.8859,237.596,1229.45,-30.2265,498.669,882.877,-64.5599,466.447,688.301,-156.212,466.661,536.385,-224.532,395.641,286.794,-307.889,358.758,286.112,-121.433,377.314,188.04,146.719,125.191,894.404,173.05,161.088,705.947,155.59,151.168,493.473,158.338,192.454,272.37,96.6095,235.04,226.985,305.213,196.239,233.603
23,0,87.0939,456.188,1164.97,121.997,190.777,1170.27,-108.214,365.878,1239.81,-84.9064,236.324,1228.9,-31.5607,497.772,882.623,-67.009,465.881,687.99,-161.496,466.294,537.782,-236.917,396.828,291.301,-318.455,358.867,291.058,-135.092,376.735,187.916,145.4,124.262,892.958,170.277,160.78,704.604,159.288,151.559,491.451,170.048,193.585,269.963,109.651,235.732,223.289,318.972,198.498,235.569
24,0,87.6908,455.151,1164.28,123.294,190.264,1169.72,-107.233,364.707,1238.89,-83.9081,235.024,1227.88,-32.0903,496.932,881.875,-68.3293,465.466,687.133,-165.876,466.098,538.832,-249.045,398.198,295.879,-328.622,359.185,296.148,-148.739,376.169,187.77,144.183,123.434,890.95,168.003,160.603,702.913,162.381,152.043,489.414,179.476,194.723,267.816,120.047,236.225,220.281,330.067,201.129,236.899
25,0,88.4182,454.027,1163.18,124.607,189.616,1168.63,-106.211,363.535,1237.41,-82.9178,233.71,1226.41,-31.7955,496.149,880.588,-68.5002,465.228,685.703,-169.306,466.089,539.52,-260.611,399.636,300.402,-338.253,359.696,301.417,-162.37,375.61,187.578,143.169,122.747,888.475,166.318,160.575,700.929,164.842,152.624,487.346,186.451,195.871,265.83,127.591,236.55,217.856,338.267,204.076,237.318
26,0,89.2435,452.822,1161.65,125.914,188.821,1167.03,-105.185,362.37,1235.37,-81.9623,232.395,1224.5,-30.6663,495.425,878.729,-67.5191,465.19,683.683,-171.742,466.277,539.84,-271.346,401.05,304.78,-347.194,360.376,306.906,-175.98,375.045,187.325,142.446,122.229,885.639,165.277,160.704,698.709,166.648,153.297,485.233,190.871,197.03,263.92,132.16,236.747,215.917,343.411,207.255,236.632
27,0,90.1312,451.545,1159.72,127.192,187.872,1164.95,-104.193,361.221,1232.78,-81.0675,231.096,1222.18,-28.7016,494.767,876.285,-65.4013,465.371,681.076,-173.152,466.672,539.799,-281.032,402.382,308.968,-355.279,361.19,312.661,-189.563,374.461,187.006,142.079,121.893,882.554,164.901,160.982,696.302,167.78,154.051,483.063,192.708,198.191,262.028,133.729,236.855,214.378,345.435,210.558,234.76
28,0,91.0443,450.205,1157.37,128.418,186.765,1162.44,-103.271,360.101,1229.66,-80.2576,229.828,1219.51,-25.9109,494.186,873.268,-62.1793,465.785,677.906,-173.512,467.278,539.416,-289.515,403.609,312.97,-362.338,362.1,318.729,-203.106,373.844,186.636,142.104,121.729,879.327,165.165,161.389,693.752,168.226,154.868,480.831,192.009,199.341,260.119,132.374,236.909,213.167,344.388,213.859,231.751
29,0,91.946,448.817,1154.65,129.571,185.504,1159.54,-102.451,359.022,1226.04,-79.5542,228.607,1216.51,-22.3154,493.699,869.718,-57.9014,466.437,674.213,-172.807,468.094,538.724,-296.696,404.738,316.831,-368.213,363.063,325.155,-216.578,373.184,186.261,142.525,121.71,876.055,166.008,161.891,691.096,167.982,155.722,478.534,188.903,200.458,258.187,128.272,236.94,212.224,340.439,217.021,227.78
30,0,92.8006,447.4,1151.57,130.629,184.097,1156.31,-101.76,357.996,1221.98,-78.9755,227.449,1213.25,-17.9516,493.327,865.705,-52.6308,467.323,670.063,-171.036,469.117,537.77,-302.532,405.797,320.632,-372.766,364.035,331.975,-229.918,372.484,185.953,143.307,121.789,872.82,167.329,162.444,688.362,167.05,156.582,476.177,183.586,201.514,256.244,121.687,236.968,211.499,333.875,219.915,223.12
31,0,93.5757,445.972,1148.18,131.574,182.561,1152.84,-101.22,357.037,1217.53,-78.536,226.367,1209.79,-12.8745,493.089,861.323,-46.4431,468.43,665.539,-168.208,470.339,536.612,-307.015,406.823,324.47,-375.895,364.974,339.209,-243.029,371.757,185.818,144.379,121.907,869.681,168.992,162.993,685.572,165.442,157.414,473.768,176.313,202.479,254.318,112.954,237.005,210.955,325.073,222.428,218.107
32,0,94.243,444.556,1144.54,132.39,180.918,1149.2,-100.847,356.151,1212.79,-78.2455,225.373,1206.2,-7.16064,493.004,856.694,-39.4246,469.738,660.743,-164.344,471.744,535.318,-310.171,407.855,328.448,-377.54,365.839,346.859,-255.756,371.039,185.984,145.635,121.996,866.677,170.838,163.483,682.738,163.171,158.183,471.321,167.381,203.32,252.446,102.457,237.051,210.558,314.477,224.477,213.092
33,0,94.7797,443.175,1140.71,133.06,179.194,1145.45,-100.646,355.347,1207.85,-78.1094,224.474,1202.55,-0.910129,493.083,851.951,-31.6696,471.217,655.793,-159.478,473.314,533.962,-312.043,408.918,332.664,-377.693,366.593,354.9,-267.887,370.381,186.591,146.94,121.985,863.822,172.687,163.856,679.868,160.258,158.857,468.85,157.11,204.009,250.665,90.5987,237.099,210.283,302.551,226.016,208.395
34,0,95.1694,441.85,1136.77,133.573,177.421,1141.68,-100.617,354.628,1202.8,-78.1283,223.674,1198.9,5.75351,493.329,847.239,-23.2776,472.832,650.817,-153.66,475.023,532.625,-312.684,410.022,337.191,-376.397,367.203,363.273,-279.141,369.853,187.775,148.139,121.813,861.114,174.353,164.06,676.969,156.726,159.409,466.372,145.822,204.52,249.009,77.7764,237.133,210.105,289.742,227.038,204.265
35,0,95.4023,440.602,1132.79,133.92,175.631,1137.96,-100.754,353.991,1197.76,-78.2982,222.976,1195.33,12.6858,493.733,842.696,-14.3505,474.543,645.948,-146.947,476.838,531.385,-312.151,411.154,342.076,-373.744,367.641,371.889,-289.175,369.535,189.65,149.066,121.429,858.533,175.654,164.055,674.044,152.598,159.817,463.903,133.823,204.839,247.499,64.3567,237.137,210.003,276.446,227.574,200.865
36,0,95.4759,439.447,1128.86,134.094,173.857,1134.37,-101.042,353.434,1192.83,-78.6112,222.375,1191.91,19.7266,494.277,838.448,-4.98999,476.308,641.321,-139.409,478.721,530.317,-310.502,412.283,347.332,-369.868,367.887,380.622,-297.598,369.513,192.288,149.562,120.801,856.051,176.417,163.814,671.098,147.896,160.069,461.461,121.387,204.962,246.148,50.6562,237.097,209.959,262.982,227.688,198.254
37,0,95.394,438.396,1125.06,134.094,172.131,1130.96,-101.462,352.948,1188.13,-79.0555,221.865,1188.7,26.708,494.929,834.599,4.70557,478.085,637.066,-131.128,480.629,529.492,-307.79,413.362,352.929,-364.932,367.929,389.315,-303.993,369.861,195.704,149.481,119.918,853.64,176.493,163.325,668.14,142.64,160.161,459.063,108.745,204.895,244.958,36.929,236.998,209.956,249.583,227.462,196.405
38,0,95.1668,437.458,1121.47,133.92,170.482,1127.79,-101.991,352.527,1183.75,-79.6163,221.436,1185.76,33.4646,495.65,831.226,14.6432,479.833,633.303,-122.19,482.513,528.967,-304.063,414.335,358.8,-359.114,367.765,397.783,-307.95,370.637,199.849,148.705,118.789,851.274,175.761,162.596,665.185,136.846,160.1,456.727,96.0753,204.655,243.921,23.3606,236.836,209.98,236.396,226.991,195.22
39,0,94.8091,436.631,1118.17,133.577,168.933,1124.91,-102.604,352.158,1179.79,-80.2766,221.076,1183.14,39.844,496.395,828.38,24.7372,481.516,630.138,-112.688,484.322,528.786,-299.362,415.147,364.835,-352.588,367.402,405.819,-309.104,371.865,204.605,147.157,117.447,848.941,174.13,161.649,662.253,130.529,159.899,454.472,83.5052,204.271,243.023,10.069,236.61,210.023,223.489,226.369,194.56
40,0,94.3396,435.911,1115.24,133.071,167.503,1122.36,-103.275,351.832,1176.34,-81.0178,220.771,1180.88,45.7184,497.119,826.085,34.9103,483.1,627.662,-102.721,486.004,528.979,-293.721,415.746,370.891,-345.516,366.86,413.205,-307.177,373.534,209.795,144.799,115.941,846.641,171.544,160.524,659.375,123.698,159.579,452.321,71.1104,203.775,242.247,-2.889,236.327,210.077,210.871,225.681,194.267
41,0,93.7794,435.286,1112.73,132.414,166.202,1120.16,-103.981,351.539,1173.45,-81.8206,220.506,1179.03,50.994,497.782,824.343,45.0943,484.559,625.944,-92.3867,487.51,529.557,-287.166,416.099,376.792,-338.026,366.166,419.72,-302.006,375.591,215.194,141.639,114.331,844.388,167.981,159.27,656.586,116.359,159.165,450.297,58.9222,203.206,241.578,-15.5073,236.002,210.144,198.508,224.995,194.19
42,0,93.1502,434.742,1110.7,131.62,165.038,1118.33,-104.699,351.27,1171.18,-82.6655,220.266,1177.6,55.618,498.352,823.146,55.2287,485.87,625.031,-81.7849,488.794,530.516,-279.722,416.19,382.339,-330.213,365.353,425.147,-293.571,377.948,220.553,137.731,112.69,842.214,163.446,157.944,653.927,108.518,158.687,448.426,46.936,202.603,241.004,-27.8179,235.648,210.227,186.343,224.361,194.206
43,0,92.4732,434.26,1109.19,130.703,164.009,1116.88,-105.412,351.019,1169.55,-83.5337,220.037,1176.62,59.5817,498.807,822.479,65.2604,487.015,624.95,-71.0135,489.818,531.832,-271.412,416.023,387.322,-322.124,364.459,429.289,-281.994,380.489,225.618,133.161,111.091,840.16,157.974,156.606,651.445,100.18,158.171,446.736,35.1209,202.001,240.519,-39.8783,235.286,210.338,174.308,223.807,194.222
44,0,91.768,433.82,1108.23,129.681,163.11,1115.81,-106.106,350.779,1168.6,-84.4073,219.804,1176.1,62.9206,499.14,822.326,75.1405,487.981,625.704,-60.1672,490.552,533.467,-262.261,415.624,391.53,-313.767,363.519,431.97,-267.532,383.09,230.156,128.046,109.602,838.276,151.617,155.314,649.187,91.3511,157.643,445.258,23.4297,201.433,240.125,-51.7583,234.932,210.496,162.341,223.344,194.183
45,0,91.0512,433.405,1107.82,128.572,162.334,1115.11,-106.773,350.547,1168.3,-85.2697,219.558,1176.03,65.7089,499.355,822.675,84.8228,488.757,627.277,-49.3364,490.979,535.366,-252.297,415.032,394.76,-305.109,362.562,433.046,-250.543,385.63,233.972,122.514,108.288,836.613,144.446,154.117,647.2,82.0422,157.128,444.022,11.8078,200.922,239.832,-63.5304,234.601,210.725,150.387,222.97,194.065
46,0,90.3361,432.999,1107.97,127.398,161.67,1114.78,-107.408,350.318,1168.66,-86.106,219.289,1176.4,68.0519,499.469,823.523,94.2598,489.336,629.629,-38.606,491.092,537.464,-241.553,414.301,396.836,-296.085,361.608,432.41,-231.452,388.016,236.923,116.7,107.197,835.219,136.538,153.057,645.527,72.269,156.642,443.057,0.201735,200.486,239.657,-75.2608,234.304,211.054,138.405,222.671,193.87
47,0,89.6326,432.588,1108.65,126.176,161.107,1114.77,-108.01,350.089,1169.63,-86.903,218.992,1177.21,70.0743,499.505,824.867,103.401,489.714,632.704,-28.0546,490.897,539.684,-230.065,413.484,397.614,-286.604,360.664,429.997,-210.705,390.189,238.931,110.728,106.366,834.135,127.981,152.162,644.207,62.0541,156.199,442.393,-11.4356,200.132,239.624,-87.0042,234.048,211.519,126.367,222.429,193.613
48,0,88.9467,432.167,1109.86,124.927,160.636,1115.09,-108.582,349.859,1171.18,-87.6489,218.663,1178.43,71.9082,499.491,826.709,112.19,489.887,636.428,-17.7531,490.408,541.943,-217.869,412.633,396.99,-276.562,359.728,425.782,-188.723,392.136,239.978,104.705,105.814,833.392,118.863,151.448,643.268,51.4281,155.806,442.055,-23.1406,199.861,239.76,-98.8005,233.834,212.162,114.255,222.227,193.316
49,0,88.2818,431.735,1111.54,123.672,160.248,1115.69,-109.125,349.623,1173.26,-88.3334,218.305,1180.03,73.6804,499.455,829.047,120.563,489.855,640.712,-7.76416,489.652,544.154,-205.002,411.792,394.911,-265.846,358.787,419.789,-165.877,393.893,240.104,98.7119,105.545,833.007,109.27,150.918,642.732,40.4302,155.466,442.063,-34.9367,199.667,240.097,-110.673,233.659,213.023,102.061,222.048,193.002
50,0,87.6391,431.297,1113.66,122.427,159.938,1116.55,-109.646,349.382,1175.82,-88.9477,217.918,1181.98,75.501,499.423,831.874,128.448,489.618,645.453,1.85856,488.659,546.231,-191.49,410.993,391.372,-254.342,357.821,412.084,-142.458,395.531,239.399,92.8022,105.546,832.983,99.2921,150.566,642.613,29.1079,155.177,442.434,-46.8342,199.539,240.666,-122.631,233.517,214.148,89.7804,221.879,192.688
51,0,87.0184,430.862,1116.16,121.213,159.702,1117.64,-110.146,349.131,1178.79,-89.4838,217.51,1184.25,77.4544,499.413,835.168,135.765,489.18,650.541,11.071,487.465,548.087,-177.349,410.255,386.42,-241.938,356.811,402.777,-118.671,397.152,237.987,87.001,105.794,833.311,89.0125,150.373,642.912,17.5165,154.933,443.179,-58.8311,199.461,241.497,-134.668,233.396,215.579,77.4099,221.71,192.386
52,0,86.4198,430.447,1119,120.046,159.541,1118.94,-110.626,348.873,1182.1,-89.9347,217.091,1186.8,79.5938,499.436,838.897,142.427,488.547,655.855,19.8394,486.107,549.647,-162.578,409.586,380.148,-228.533,355.74,392.021,-94.6388,398.865,236.015,81.3084,106.254,833.974,78.514,150.317,643.624,5.71781,154.726,444.302,-70.9143,199.415,242.617,-146.768,233.285,217.353,64.9478,221.534,192.102
53,0,85.8445,430.07,1122.12,118.941,159.458,1120.4,-111.085,348.606,1185.7,-90.2939,216.669,1189.58,81.9389,499.495,843.012,148.346,487.728,661.275,28.1399,484.621,550.841,-147.161,408.985,372.695,-214.032,354.604,380.007,-70.4128,400.77,233.638,75.706,106.886,834.944,67.8763,150.369,644.734,-6.2217,154.547,445.799,-83.0627,199.383,244.046,-158.905,233.169,219.505,52.3907,221.347,191.836
54,0,85.2959,429.75,1125.46,117.916,159.456,1122,-111.516,348.336,1189.51,-90.5554,216.261,1192.55,84.4761,499.585,847.449,153.433,486.736,666.677,35.9596,483.041,551.614,-131.063,408.448,364.238,-198.357,353.409,366.958,-45.9911,402.94,231.01,70.1636,107.648,836.191,57.1766,150.502,646.219,-18.2324,154.384,447.662,-95.2493,199.346,245.801,-171.05,233.034,222.058,39.7344,221.145,191.586
55,0,84.7804,429.505,1128.95,116.984,159.54,1123.72,-111.911,348.068,1193.47,-90.7136,215.879,1195.67,87.1621,499.695,852.128,157.603,485.587,671.942,43.2954,481.397,551.925,-114.237,407.972,354.985,-181.446,352.178,353.126,-21.3387,405.404,228.274,64.6479,108.499,837.679,46.4897,150.686,648.05,-30.2436,154.228,449.871,-107.444,199.287,247.886,-183.171,232.864,225.027,26.974,220.925,191.351
56,0,84.3083,429.354,1132.54,116.159,159.715,1125.52,-112.257,347.811,1197.5,-90.7631,215.539,1198.9,89.928,499.812,856.962,160.786,484.3,676.957,50.1541,479.715,551.753,-96.6324,407.554,345.17,-163.259,350.944,338.786,3.59355,408.143,225.568,59.1297,109.401,839.375,35.8884,150.897,650.19,-42.1851,154.069,452.401,-119.615,199.19,250.301,-195.238,232.645,228.415,14.1047,220.685,191.129
57,0,83.8935,429.309,1136.18,115.454,159.984,1127.39,-112.537,347.579,1201.55,-90.6991,215.259,1202.18,92.6851,499.924,861.854,162.926,482.9,681.618,56.5516,478.016,551.09,-78.2042,407.198,335.046,-143.786,349.755,324.225,28.8515,411.084,223.02,53.5911,110.322,841.244,25.4436,151.112,652.598,-53.9885,153.899,455.219,-131.732,199.042,253.035,-207.221,232.365,232.214,1.1237,220.423,190.92
58,0,83.5537,429.379,1139.8,114.878,160.349,1129.28,-112.733,347.388,1205.55,-90.5175,215.054,1205.46,95.3304,500.019,866.699,163.994,481.411,685.834,62.5113,476.318,549.95,-58.9277,406.909,324.875,-123.055,348.661,309.733,54.4629,414.112,220.763,48.0298,111.236,843.255,15.2255,151.314,655.227,-65.5884,153.712,458.285,-143.767,198.833,256.068,-219.097,232.01,236.403,-11.9692,220.14,190.726
59,0,83.3096,429.566,1143.35,114.444,160.81,1131.17,-112.826,347.255,1209.43,-90.2151,214.939,1208.71,97.7521,500.095,871.393,163.988,479.862,689.527,68.0635,474.638,548.36,-38.8139,406.694,314.92,-101.146,347.713,295.593,80.4246,417.078,218.932,42.4626,112.126,845.373,5.30375,151.492,658.023,-76.9225,153.504,461.551,-155.694,198.555,259.372,-230.846,231.572,240.953,-25.1704,219.837,190.551
60,0,83.184,429.868,1146.78,114.158,161.365,1133.04,-112.795,347.203,1213.15,-89.7898,214.928,1211.85,99.8349,500.154,875.827,162.945,478.283,692.638,73.243,472.991,546.364,-17.9241,406.558,305.43,-78.197,346.952,282.071,106.69,419.817,217.669,36.9257,112.981,847.566,-4.25098,151.641,660.929,-87.9322,153.272,464.964,-167.49,198.204,262.913,-242.456,231.042,245.824,-38.472,219.517,190.398
61,0,83.2005,430.276,1150.03,114.027,162.008,1134.86,-112.623,347.252,1216.63,-89.2413,215.034,1214.86,101.466,500.207,879.89,160.936,476.702,695.128,78.0878,471.389,544.016,3.61723,406.501,296.63,-54.4147,346.411,269.402,133.16,422.173,217.12,31.4743,113.796,849.797,-13.3663,151.759,663.88,-98.5619,153.018,468.464,-179.135,197.775,266.65,-253.916,230.416,250.969,-51.8619,219.185,190.272
62,0,83.382,430.776,1153.05,114.055,162.732,1136.6,-112.292,347.425,1219.83,-88.5716,215.265,1217.67,102.542,500.269,883.474,158.077,475.146,696.973,82.6363,469.846,541.378,25.6137,406.514,288.706,-30.0829,346.104,257.784,159.671,424.01,217.414,26.1796,114.571,852.025,-21.967,151.85,666.807,-108.758,152.741,471.988,-190.612,197.271,270.539,-265.22,229.693,256.341,-65.3242,218.846,190.173
63,0,83.7489,431.352,1155.8,114.243,163.53,1138.23,-111.792,347.741,1222.7,-87.7849,215.629,1220.23,102.977,500.358,886.474,154.519,473.639,698.174,86.9256,468.377,538.517,47.7935,406.583,281.789,-5.5612,346.027,247.362,185.986,425.229,218.643,21.1255,115.314,854.203,-29.9748,151.922,669.635,-118.47,152.446,475.47,-201.903,196.694,274.534,-276.36,228.874,261.888,-78.8406,218.503,190.099
64,0,84.3179,431.983,1158.23,114.588,164.392,1139.7,-111.115,348.219,1225.19,-86.8885,216.129,1222.49,102.708,500.492,888.792,150.453,472.202,698.75,90.9888,466.996,535.502,69.8127,406.684,275.949,18.7189,346.161,238.229,211.797,425.773,220.834,16.4045,116.034,856.276,-37.3078,151.987,672.283,-127.647,152.137,478.844,-212.989,196.048,278.587,-287.329,227.965,267.562,-92.3921,218.163,190.042
65,0,85.1001,432.651,1160.29,115.085,165.309,1141,-110.262,348.871,1227.25,-85.893,216.764,1224.4,101.71,500.682,890.343,146.096,470.849,698.738,94.8532,465.716,532.4,91.265,406.788,271.186,42.2667,346.47,230.421,236.723,425.633,223.916,12.1132,116.746,858.179,-43.8813,152.058,674.668,-136.237,151.817,482.045,-223.849,195.339,282.655,-298.109,226.975,273.323,-105.961,217.828,189.991
66,0,86.0998,433.336,1161.96,115.722,166.271,1142.08,-109.237,349.706,1228.86,-84.8122,217.531,1225.92,100.003,500.932,891.066,141.689,469.592,698.196,98.5383,464.551,529.273,111.699,406.864,267.435,64.5522,346.91,223.916,260.319,424.833,227.704,8.34794,117.464,859.844,-49.609,152.147,676.703,-144.192,151.493,485.009,-234.457,194.573,286.699,-308.676,225.915,279.136,-119.533,217.499,189.927
67,0,87.3137,434.021,1163.19,116.487,167.269,1142.9,-108.055,350.723,1229.97,-83.6636,218.423,1227.01,97.6599,501.231,890.931,137.476,468.434,697.191,102.054,463.513,526.176,130.64,406.878,264.568,85.0322,347.43,218.645,282.1,423.43,231.889,5.20131,118.207,861.191,-54.405,152.27,678.302,-151.458,151.167,487.681,-244.781,193.755,290.685,-318.989,224.8,284.981,-133.1,217.176,189.827
68,0,88.7303,434.695,1163.97,117.359,168.297,1143.44,-106.737,351.918,1230.57,-82.4677,219.428,1227.62,94.8154,501.556,889.949,133.7,467.379,695.805,105.4,462.613,523.158,147.62,406.8,262.414,103.182,347.979,214.498,301.567,421.498,236.057,2.75834,118.992,862.143,-58.1864,152.439,679.382,-157.983,150.844,490.012,-254.778,192.89,294.591,-328.994,223.645,290.847,-146.661,216.858,189.667
69,0,90.3298,435.349,1164.27,118.316,169.346,1143.66,-105.31,353.274,1230.64,-81.2481,220.532,1227.72,91.6645,501.874,888.178,130.579,466.424,694.125,108.564,461.861,520.258,162.204,406.605,260.778,118.531,348.508,211.337,318.239,419.121,239.73,1.09392,119.837,862.619,-60.8767,152.664,679.865,-163.716,150.526,491.962,-264.398,191.982,298.405,-338.614,222.464,296.742,-160.222,216.544,189.424
70,0,92.0845,435.98,1164.1,119.333,170.411,1143.52,-103.811,354.77,1230.17,-80.031,221.72,1227.3,88.4563,502.146,885.728,128.298,465.567,692.24,111.526,461.262,517.508,174.026,406.277,259.462,130.693,348.978,209.008,331.701,416.392,242.421,0.270376,120.756,862.548,-62.4089,152.951,679.684,-168.602,150.214,493.506,-273.577,191.033,302.128,-347.756,221.273,302.686,-173.794,216.235,189.084
71,0,93.9599,436.589,1163.46,120.381,171.486,1143.01,-102.277,356.375,1229.17,-78.844,222.974,1226.34,85.4793,502.332,882.755,126.989,464.808,690.234,114.254,460.823,514.928,182.81,405.804,258.287,139.4,349.357,207.355,341.635,413.407,243.711,0.33562,121.758,861.869,-62.7294,153.303,678.788,-172.591,149.904,494.631,-282.243,190.043,305.775,-356.306,220.082,308.713,-187.39,215.931,188.646
72,0,95.9156,437.185,1162.35,121.428,172.566,1142.09,-100.753,358.053,1227.66,-77.7157,224.273,1224.85,83.0368,502.404,879.455,126.725,464.149,688.185,116.708,460.547,512.534,188.401,405.189,257.113,144.518,349.626,206.232,347.864,410.271,243.315,1.32156,122.849,860.539,-61.8012,153.718,677.144,-175.633,149.596,495.338,-290.31,189.013,309.372,-364.137,218.902,314.868,-201.019,215.638,188.131
73,0,97.9071,437.775,1160.82,122.444,173.645,1140.78,-99.2837,359.764,1225.67,-76.6744,225.6,1222.82,81.4161,502.353,876.051,127.509,463.598,686.156,118.841,460.435,510.331,190.77,404.443,255.848,146.067,349.779,205.506,350.372,407.094,241.138,3.24277,124.026,858.54,-59.6066,154.191,674.742,-177.681,149.284,495.645,-297.687,187.942,312.962,-371.109,217.738,321.206,-214.676,215.359,187.584
74,0,99.8878,438.374,1158.9,123.398,174.716,1139.05,-97.9135,361.462,1223.24,-75.7472,226.933,1220.3,80.8528,502.193,872.766,129.272,463.167,684.195,120.602,460.488,508.316,190.022,403.586,254.454,144.21,349.819,205.068,349.317,403.993,237.291,6.09527,125.278,855.881,-56.1488,154.712,671.599,-178.695,148.962,495.585,-304.275,186.83,316.593,-377.08,216.592,327.782,-228.329,215.102,187.081
75,0,101.811,438.996,1156.63,124.26,175.771,1136.94,-96.6844,363.105,1220.43,-74.9586,228.256,1217.31,81.4968,501.965,869.806,131.879,462.876,682.33,121.937,460.705,506.481,186.387,402.651,252.937,139.246,349.759,204.83,345.018,401.085,232.084,9.85552,126.587,852.601,-51.4536,155.264,667.759,-178.639,148.625,495.204,-309.97,185.681,320.324,-381.913,215.468,334.647,-241.914,214.871,186.725
76,0,103.631,439.653,1154.09,125.004,176.803,1134.46,-95.6338,364.65,1217.3,-74.3299,229.552,1213.9,83.3837,501.737,867.331,135.13,462.748,680.572,122.787,461.08,504.812,180.201,401.677,251.345,131.58,349.622,204.726,337.927,398.478,225.974,14.4795,127.926,848.77,-45.5683,155.833,663.297,-177.487,148.266,494.561,-314.672,184.5,324.214,-385.486,214.365,341.844,-255.312,214.666,186.64
77,0,105.306,440.358,1151.32,125.608,177.803,1131.64,-94.7923,366.062,1213.92,-73.8779,230.805,1210.15,86.4185,501.589,865.441,138.781,462.807,678.912,123.097,461.606,503.29,171.871,400.71,249.744,121.693,349.434,204.71,328.586,396.26,219.494,19.902,129.263,844.49,-38.5608,156.399,658.315,-175.22,147.883,493.724,-318.284,183.3,328.319,-387.699,213.287,349.396,-268.35,214.48,186.964
78,0,106.799,441.12,1148.41,126.054,178.76,1128.55,-94.1824,367.309,1210.39,-73.6143,232.006,1206.13,90.3745,501.61,864.156,142.554,463.078,677.326,122.811,462.274,501.89,161.847,399.796,248.204,110.096,349.22,204.75,317.566,394.487,213.167,26.037,130.563,839.883,-30.5168,156.943,652.94,-171.831,147.471,492.769,-320.719,182.096,332.687,-388.486,212.243,357.3,-280.788,214.295,187.829
79,0,108.08,441.945,1145.43,126.33,179.665,1125.25,-93.817,368.373,1206.79,-73.5452,233.145,1201.92,94.9091,501.879,863.421,146.158,463.58,675.781,121.877,463.069,500.588,150.583,398.976,246.79,97.2991,349.008,204.823,305.42,393.18,207.439,32.7777,131.787,835.095,-21.5364,157.447,647.322,-167.326,147.033,491.775,-321.903,180.91,337.349,-387.818,211.246,365.526,-292.321,214.084,189.352
80,0,109.127,442.835,1142.45,126.428,180.511,1121.81,-93.6995,369.246,1203.22,-73.6711,234.216,1197.61,99.5953,502.452,863.112,149.31,464.323,674.238,120.249,463.972,499.356,138.503,398.285,245.543,83.7705,348.815,204.916,292.631,392.32,202.617,39.999,132.9,830.28,-11.7303,157.895,641.624,-161.721,146.574,490.818,-321.778,179.769,342.319,-385.707,210.314,374.005,-302.591,213.811,191.609
81,0,109.924,443.785,1139.54,126.349,181.29,1118.31,-93.8235,369.928,1199.76,-73.9866,235.216,1193.29,103.966,503.357,863.053,151.751,465.305,672.657,117.884,464.962,498.171,125.975,397.746,244.483,69.9122,348.654,205.019,279.584,391.852,198.856,47.5603,133.87,825.592,-1.21492,158.275,636.022,-155.048,146.102,489.975,-320.306,178.702,347.582,-382.207,209.474,382.638,-311.194,213.433,194.631
82,0,110.463,444.789,1136.78,126.095,181.997,1114.84,-94.1738,370.433,1196.5,-74.4811,236.145,1189.08,107.563,504.584,863.049,153.262,466.511,671.009,114.75,466.012,497.012,113.295,397.366,243.606,56.042,348.531,205.126,266.554,391.699,196.156,55.31,134.67,821.181,9.89164,158.58,630.689,-147.351,145.633,489.311,-317.469,177.742,353.097,-377.407,208.755,391.289,-317.711,212.91,198.388
83,0,110.745,445.836,1134.21,125.674,182.629,1111.5,-94.7275,370.784,1193.52,-75.1392,237.003,1185.06,109.989,506.088,862.91,153.675,467.912,669.273,110.824,467.093,495.864,100.679,397.137,242.887,42.3869,348.444,205.232,253.708,391.771,194.403,63.092,135.286,817.18,21.4733,158.808,625.797,-138.689,145.182,488.886,-313.271,176.92,358.79,-371.428,208.187,399.789,-321.737,212.212,202.79
84,0,110.776,446.911,1131.9,125.101,183.189,1108.38,-95.4559,371.01,1190.89,-75.9419,237.794,1181.31,110.943,507.796,862.484,152.88,469.464,667.445,106.095,468.177,494.72,88.2652,397.04,242.294,29.0853,348.385,205.337,241.121,391.977,193.402,70.7522,135.71,813.703,33.419,158.965,621.503,-129.13,144.772,488.743,-307.734,176.264,364.561,-364.41,207.799,407.949,-322.908,211.327,207.691
85,0,110.569,447.997,1129.89,124.389,183.678,1105.55,-96.3268,371.146,1188.67,-76.8674,238.522,1177.94,110.255,509.613,861.68,150.825,471.109,665.539,100.565,469.231,493.584,76.1203,397.044,241.79,16.1973,348.344,205.44,228.8,392.237,192.931,78.1472,135.945,810.836,45.6245,159.061,617.948,-118.757,144.427,488.914,-300.901,175.799,370.279,-356.5,207.612,415.557,-320.939,210.269,212.901
86,0,110.141,449.076,1128.22,123.558,184.104,1103.11,-97.306,371.23,1186.91,-77.8919,239.191,1175.01,107.893,511.433,860.475,147.513,472.787,663.585,94.2478,470.227,492.467,64.2545,397.113,241.346,3.71986,348.312,205.547,216.709,392.486,192.775,85.1519,136.006,808.641,57.9931,159.113,615.249,-107.66,144.169,489.416,-292.826,175.54,375.792,-347.841,207.64,422.396,-315.649,209.081,218.202
87,0,109.512,450.13,1126.89,122.625,184.475,1101.11,-98.3601,371.295,1185.63,-78.9913,239.805,1172.58,103.959,513.153,858.92,142.994,474.429,661.629,87.1712,471.139,491.39,52.6353,397.215,240.942,-8.39575,348.28,205.666,204.787,392.679,192.76,91.6668,135.912,807.156,70.4349,159.143,613.497,-95.9372,144.023,490.25,-283.579,175.497,380.931,-338.56,207.886,428.247,-306.978,207.837,223.369
88,0,108.706,451.141,1125.93,121.612,184.8,1099.63,-99.4576,371.373,1184.86,-80.1416,240.37,1170.71,98.6662,514.684,857.127,137.356,475.97,659.728,79.3743,471.945,490.383,41.2026,397.32,240.572,-20.2259,348.248,205.811,192.969,392.791,192.759,97.6234,135.691,806.394,82.8655,159.175,612.755,-83.6915,144.009,491.402,-273.234,175.669,385.518,-328.76,208.341,432.898,-294.991,206.628,228.189
89,0,107.746,452.094,1125.33,120.538,185.089,1098.69,-100.571,371.49,1184.6,-81.3201,240.888,1169.43,92.3085,515.953,855.248,130.711,477.351,657.945,70.9059,472.627,489.48,29.8822,397.41,240.249,-31.859,348.218,206,181.196,392.812,192.702,102.988,135.374,806.352,95.2038,159.236,613.056,-71.029,144.14,492.844,-261.871,176.049,389.374,-318.51,208.987,436.157,-279.874,205.559,232.479
90,0,106.656,452.975,1125.09,119.424,185.351,1098.32,-101.677,371.661,1184.84,-82.5056,241.364,1168.75,85.2212,516.914,853.453,123.186,478.521,656.347,61.8227,473.173,488.72,18.5965,397.477,239.998,-43.3819,348.201,206.256,169.42,392.746,192.562,107.76,134.992,807.011,107.369,159.35,614.4,-58.0558,144.428,494.532,-249.569,176.621,392.33,-307.845,209.8,437.859,-261.913,204.726,236.1
91,0,105.461,453.773,1125.2,118.289,185.594,1098.54,-102.757,371.896,1185.56,-83.6791,241.798,1168.69,77.7424,517.542,851.905,114.913,479.445,654.995,52.1865,473.576,488.143,7.27266,397.527,239.854,-54.8714,348.209,206.607,157.606,392.607,192.343,111.975,134.575,808.344,119.28,159.541,616.763,-44.8756,144.874,496.413,-236.4,177.363,394.235,-296.762,210.752,437.87,-241.464,204.203,238.966
92,0,104.182,454.479,1125.64,117.154,185.824,1099.34,-103.8,372.193,1186.73,-84.824,242.194,1169.24,70.1794,517.839,850.735,106.016,480.099,653.943,42.0621,473.834,487.789,-4.15147,397.577,239.862,-66.3878,348.258,207.082,145.733,392.412,192.07,115.691,134.149,810.317,130.849,159.826,620.088,-31.5876,145.473,498.422,-222.43,178.25,394.966,-285.227,211.817,436.097,-218.923,204.028,241.038
93,0,102.844,455.088,1126.38,116.037,186.044,1100.7,-104.794,372.545,1188.32,-85.9256,242.551,1170.36,62.782,517.823,850.033,96.613,480.475,653.233,31.5153,473.946,487.691,-15.7236,397.65,240.07,-77.9732,348.361,207.716,133.789,392.183,191.771,118.988,133.736,812.891,141.988,160.216,624.294,-18.2846,146.212,500.486,-207.713,179.253,394.435,-273.174,212.971,432.495,-194.69,204.194,242.33
94,0,101.466,455.598,1127.38,114.956,186.255,1102.6,-105.737,372.934,1190.27,-86.9711,242.87,1172.03,55.7273,517.528,849.841,86.806,480.578,652.896,20.6117,473.919,487.88,-27.4739,397.771,240.52,-89.6512,348.528,208.543,121.768,391.939,191.472,121.957,133.35,816.024,152.6,160.715,629.277,-5.05172,147.071,502.53,-192.289,180.347,392.594,-260.517,214.198,427.067,-169.146,204.648,242.891
95,0,100.068,456.01,1128.62,113.93,186.457,1104.98,-106.623,373.342,1192.54,-87.9491,243.149,1174.21,49.1143,516.995,850.151,76.6841,480.425,652.945,9.4157,473.757,488.378,-39.4125,397.96,241.249,-101.43,348.759,209.596,109.672,391.698,191.187,124.689,132.999,819.672,162.588,161.319,634.911,8.03512,148.026,504.474,-176.186,181.504,389.44,-247.154,215.49,419.867,-142.627,205.302,242.797
96,0,98.6706,456.326,1130.06,112.977,186.647,1107.81,-107.453,373.745,1195.08,-88.8491,243.389,1176.82,42.9682,516.269,850.918,66.3242,480.039,653.384,-2.00968,473.469,489.201,-51.5272,398.228,242.281,-113.304,349.049,210.907,97.5025,391.468,190.926,127.266,132.685,823.786,171.852,162.014,641.057,20.9092,149.047,506.244,-159.419,182.702,385.015,-232.978,216.845,411.004,-115.415,206.038,242.142
97,0,97.2921,456.552,1131.67,112.115,186.822,1111.03,-108.222,374.116,1197.82,-89.6611,243.586,1179.83,37.2533,515.392,852.071,55.7934,479.452,654.203,-13.6025,473.062,490.357,-63.7806,398.569,243.62,-125.259,349.38,212.507,85.2621,391.257,190.687,129.757,132.402,828.309,180.294,162.78,647.562,33.5133,150.105,507.771,-141.992,183.923,379.408,-217.884,218.265,400.636,-87.7343,206.734,241.02
98,0,95.9518,456.695,1133.42,111.36,186.979,1114.57,-108.929,374.433,1200.73,-90.3748,243.738,1183.15,31.8901,514.4,853.523,45.1535,478.696,655.38,-25.3014,472.545,491.844,-76.1094,398.957,245.254,-137.276,349.728,214.421,72.9529,391.061,190.463,132.206,132.14,833.18,187.823,163.589,654.267,45.799,151.168,508.993,-123.904,185.153,372.748,-201.781,219.757,388.966,-59.7541,207.281,239.529
99,0,94.6686,456.762,1135.26,110.731,187.116,1118.37,-109.568,374.672,1203.74,-90.9796,243.842,1186.71,26.7757,513.32,855.191,34.4645,477.806,656.888,-37.0445,471.925,493.655,-88.4237,399.344,247.143,-149.331,350.062,216.668,60.5746,390.874,190.247,134.637,131.884,838.327,194.358,164.409,661.016,57.7258,152.207,509.866,-105.154,186.383,365.202,-184.596,221.329,376.238,-31.5997,207.598,237.757
100,0,93.4623,456.761,1137.18,110.242,187.231,1122.38,-110.13,374.816,1206.82,-91.4645,243.893,1190.45,21.8034,512.175,856.999,23.7886,476.811,658.69,-48.7691,471.21,495.774,-100.611,399.664,249.232,-161.4,350.346,219.263,48.1247,390.683,190.032,137.045,131.617,843.671,199.833,165.204,667.653,69.2601,153.196,510.358,-85.7489,187.608,356.965,-166.287,222.982,362.726,-3.36335,207.646,235.79
101,0,92.3526,456.703,1139.14,109.909,187.324,1126.51,-110.606,374.849,1209.92,-91.8178,243.887,1194.29,16.8804,510.976,858.886,13.1934,475.741,660.746,-60.4102,470.409,498.18,-112.542,399.837,251.447,-173.46,350.546,222.211,35.5974,390.472,189.812,139.405,131.321,849.122,204.2,165.939,674.034,80.3734,154.111,510.456,-65.7102,188.825,348.255,-146.849,224.718,348.725,24.8815,207.43,233.714
102,0,91.36,456.595,1141.11,109.744,187.398,1130.72,-110.98,374.763,1212.99,-92.0277,243.818,1198.15,11.9416,509.735,860.808,2.75475,474.62,663.011,-71.9004,469.531,500.843,-124.082,399.775,253.704,-185.487,350.633,225.511,22.9845,390.225,189.589,141.675,130.977,854.584,207.438,166.58,680.031,91.041,154.935,510.163,-45.0824,190.035,339.301,-126.32,226.532,334.538,53.0671,206.998,231.621
103,0,90.5049,456.445,1143.07,109.76,187.456,1134.94,-111.237,374.551,1216.01,-92.0824,243.681,1201.98,6.95789,508.457,862.739,-7.44256,473.468,665.434,-83.1697,468.586,503.731,-135.109,399.401,255.924,-197.464,350.586,229.154,10.2765,389.925,189.365,143.798,130.568,859.954,209.549,167.097,685.534,101.24,155.657,509.499,-23.9408,191.239,330.33,-104.787,228.412,320.461,81.1189,206.428,229.614
104,0,89.8075,456.259,1144.99,109.965,187.503,1139.09,-111.359,374.214,1218.94,-91.971,243.469,1205.7,1.93971,507.149,864.661,-17.3039,472.302,667.962,-94.1449,467.589,506.803,-145.528,398.653,258.038,-209.37,350.394,233.123,-2.53659,389.561,189.147,145.717,130.079,865.126,210.565,167.466,690.454,110.949,156.269,508.5,-2.39699,192.437,321.562,-82.3919,230.345,306.772,108.946,205.811,227.81
105,0,89.2873,456.042,1146.85,110.365,187.545,1143.13,-111.327,373.756,1221.75,-91.6841,243.178,1209.26,-3.06421,505.822,866.565,-26.7261,471.137,670.541,-104.751,466.555,510.016,-155.289,397.502,260.008,-221.193,350.061,237.398,-15.4635,389.123,188.944,147.374,129.501,869.997,210.545,167.671,694.726,120.146,156.77,507.211,19.3968,193.629,313.193,-59.3291,232.311,293.72,136.431,205.242,226.332
106,0,88.9621,455.796,1148.63,110.963,187.586,1146.99,-111.123,373.185,1224.41,-91.2144,242.802,1212.58,-7.97231,504.487,868.439,-35.5986,469.986,673.108,-114.91,465.503,513.321,-164.408,395.966,261.831,-232.918,349.605,241.95,-28.51,388.608,188.764,148.722,128.83,874.467,209.579,167.704,698.309,128.805,157.165,505.684,41.246,194.814,305.391,-35.8481,234.29,281.513,163.426,204.798,225.305
107,0,88.8476,455.521,1150.29,111.76,187.629,1150.61,-110.73,372.51,1226.88,-90.5579,242.336,1215.63,-12.6783,503.158,870.268,-43.8071,468.862,675.601,-124.546,464.458,516.666,-172.968,394.108,263.549,-244.533,349.054,246.751,-41.6776,388.021,188.615,149.733,128.066,878.445,207.784,167.568,701.186,136.902,157.463,503.975,62.9154,195.988,298.283,-12.2496,236.257,270.31,189.748,204.535,224.84
108,0,88.9562,455.215,1151.82,112.75,187.674,1153.93,-110.137,371.746,1229.14,-89.7142,241.778,1218.36,-17.0608,501.853,872.029,-51.2366,467.778,677.952,-133.579,463.444,519.995,-181.125,392.043,265.246,-256.025,348.449,251.772,-54.9625,387.369,188.501,150.396,127.219,881.853,205.298,167.274,703.361,144.407,157.676,502.135,84.133,197.146,291.952,11.1214,238.187,260.22,215.178,204.483,225.012
109,0,89.2964,454.872,1153.19,113.926,187.72,1156.91,-109.332,370.906,1231.15,-88.6876,241.127,1220.71,-20.9938,500.586,873.686,-57.7754,466.751,680.092,-141.934,462.489,523.252,-189.087,389.928,267.047,-267.377,347.839,256.984,-68.3554,386.669,188.42,150.725,126.307,884.63,202.279,166.844,704.855,151.293,157.822,500.212,104.598,198.282,286.434,33.8832,240.05,251.295,239.461,204.651,225.843
110,0,89.8717,454.486,1154.37,115.277,187.759,1159.48,-108.314,370.007,1232.88,-87.487,240.385,1222.67,-24.3554,499.371,875.192,-63.3195,465.799,681.948,-149.539,461.626,526.376,-197.093,387.945,269.096,-278.567,347.277,262.364,-81.8412,385.939,188.365,150.758,125.355,886.733,198.897,166.306,705.707,157.527,157.918,498.243,123.99,199.389,281.72,55.6303,241.818,243.542,262.316,205.034,227.286
111,0,90.6799,454.049,1155.33,116.787,187.781,1161.61,-107.087,369.066,1234.28,-86.1268,239.554,1224.2,-27.036,498.221,876.487,-67.7769,464.941,683.45,-156.323,460.885,529.311,-205.372,386.281,271.538,-289.56,346.817,267.897,-95.4006,385.2,188.322,150.554,124.396,888.142,195.328,165.694,705.966,163.08,157.987,496.255,141.983,200.464,277.755,75.947,243.46,236.919,283.436,205.625,229.214
112,0,91.7126,453.551,1156.03,118.438,187.769,1163.26,-105.659,368.099,1235.32,-84.6263,238.641,1225.28,-28.9435,497.143,877.502,-71.0712,464.2,684.528,-162.223,460.297,532,-214.11,385.101,274.494,-300.308,346.51,273.571,-109.011,384.476,188.271,150.19,123.466,888.857,191.748,165.044,705.689,167.923,158.048,494.263,158.258,201.5,274.452,94.4251,244.947,231.352,302.507,206.418,231.424
113,0,92.9549,452.984,1156.44,120.207,187.706,1164.38,-104.051,367.123,1235.95,-83.0099,237.657,1225.89,-30.0069,496.142,878.163,-73.1452,463.598,685.115,-167.183,459.893,534.39,-223.404,384.53,278.043,-310.746,346.405,279.389,-122.649,383.786,188.188,149.757,122.607,888.904,188.32,164.394,704.937,172.032,158.122,492.27,172.521,202.498,271.698,110.682,246.253,226.739,319.219,207.415,233.649
114,0,94.3854,452.34,1156.54,122.071,187.57,1164.97,-102.288,366.155,1236.14,-81.3064,236.614,1226.03,-30.1771,495.22,878.392,-73.9632,463.16,685.155,-171.152,459.699,536.438,-233.247,384.636,282.206,-320.79,346.54,285.359,-136.291,383.145,188.049,149.348,121.856,888.325,185.194,163.778,703.772,175.386,158.228,490.272,184.513,203.458,269.365,124.379,247.359,222.966,333.283,208.624,235.584
115,0,95.9764,451.611,1156.29,124.002,187.338,1165,-100.403,365.21,1235.85,-79.5481,235.528,1225.71,-29.4264,494.379,878.117,-73.5128,462.906,684.599,-174.091,459.741,538.105,-243.514,385.423,286.941,-330.339,346.947,291.503,-149.916,382.561,187.833,149.056,121.245,887.184,182.493,163.226,702.253,177.973,158.379,488.256,194.032,204.382,267.325,135.244,248.253,219.912,344.454,210.052,236.92
116,0,97.6951,450.793,1155.68,125.971,186.985,1164.49,-98.4336,364.303,1235.06,-77.7701,234.416,1224.93,-27.7465,493.621,877.273,-71.8056,462.854,683.416,-175.97,460.038,539.366,-253.977,386.838,292.155,-339.272,347.648,297.849,-163.506,382.036,187.53,148.959,120.795,885.559,180.308,162.759,700.436,179.787,158.586,486.209,200.938,205.277,265.46,143.086,248.935,217.461,352.549,211.699,237.389
117,0,99.5038,449.886,1154.67,127.946,186.489,1163.43,-96.4238,363.448,1233.73,-76.0088,233.298,1223.71,-25.1467,492.953,875.814,-68.877,463.019,681.59,-176.768,460.603,540.21,-264.333,388.786,297.719,-347.456,348.658,304.432,-177.045,381.564,187.143,149.116,120.512,883.537,178.698,162.386,698.373,180.833,158.853,484.116,205.166,206.147,263.672,147.808,249.418,215.507,357.472,213.546,236.797
118,0,101.362,448.892,1153.26,129.897,185.831,1161.86,-94.4191,362.655,1231.87,-74.3011,232.195,1222.08,-21.6519,492.384,873.716,-64.7843,463.406,679.129,-176.477,461.444,540.637,-274.242,391.148,303.49,-354.755,349.981,311.289,-190.513,381.133,186.698,149.558,120.384,881.209,177.68,162.108,696.108,181.123,159.178,481.964,206.73,206.995,261.888,149.42,249.721,213.961,359.228,215.552,235.056
119,0,103.228,447.817,1151.44,131.79,184.996,1159.82,-92.4657,361.934,1229.47,-72.6823,231.127,1220.07,-17.3012,491.924,870.986,-59.6048,464.017,676.06,-175.099,462.565,540.665,-283.368,393.801,309.337,-361.031,351.614,318.459,-203.883,380.731,186.247,150.284,120.38,878.665,177.232,161.911,693.681,180.678,159.554,479.746,205.726,207.823,260.064,148.036,249.876,212.747,357.933,217.651,232.203
120,0,105.061,446.671,1149.24,133.594,183.975,1157.35,-90.6084,361.291,1226.56,-71.1855,230.116,1217.74,-12.1481,491.589,867.661,-53.4324,464.843,672.436,-172.65,463.958,540.327,-291.412,396.638,315.156,-366.159,353.542,325.971,-217.107,380.348,185.87,151.255,120.45,875.988,177.293,161.771,691.124,179.526,159.965,477.462,202.321,208.625,258.186,143.87,249.917,211.807,353.815,219.759,228.39
121,0,106.821,445.468,1146.67,135.278,182.765,1154.53,-88.8883,360.73,1223.18,-69.84,229.18,1215.13,-6.26149,491.393,863.815,-46.3731,465.869,668.334,-169.154,465.612,539.67,-298.14,399.572,320.882,-370.035,355.741,333.843,-230.108,379.981,185.675,152.399,120.532,873.247,177.767,161.655,688.466,177.701,160.392,475.118,196.749,209.392,256.265,137.222,249.879,211.093,347.201,221.777,223.875
122,0,108.473,444.223,1143.77,136.813,181.371,1151.41,-87.3405,360.25,1219.38,-68.6706,228.334,1212.31,0.273213,491.348,859.558,-38.5406,467.073,663.852,-164.647,467.507,538.754,-303.394,402.541,326.494,-372.585,358.175,342.076,-242.765,379.642,185.792,153.607,120.553,870.497,178.528,161.523,685.73,175.238,160.808,472.727,189.294,210.109,254.329,128.458,249.793,210.57,338.489,223.611,218.975
123,0,109.987,442.955,1140.58,138.173,179.805,1148.08,-85.9931,359.85,1215.25,-67.6963,227.593,1209.33,7.35214,491.459,855.024,-30.0511,468.424,659.108,-159.173,469.617,537.65,-307.092,405.507,332.011,-373.77,360.794,350.646,-254.901,379.357,186.363,154.748,120.441,867.775,179.426,161.331,682.938,172.176,161.188,470.307,180.271,210.758,252.419,117.985,249.686,210.208,328.122,225.176,214.03
124,0,111.34,441.682,1137.18,139.334,178.089,1144.63,-84.8651,359.523,1210.86,-66.9299,226.964,1206.27,14.8524,491.726,850.368,-21.0187,469.888,654.233,-152.786,471.906,536.435,-309.225,408.447,337.479,-373.591,363.538,359.506,-266.283,379.172,187.531,155.67,120.126,865.101,180.299,161.039,680.107,168.55,161.501,467.88,170.009,211.318,250.58,106.222,249.574,209.983,316.547,226.413,209.356
125,0,112.515,440.423,1133.64,140.278,176.248,1141.13,-83.9664,359.263,1206.33,-66.3782,226.452,1203.19,22.6328,492.135,845.753,-11.5505,471.428,649.368,-145.545,474.335,535.193,-309.836,411.341,342.96,-372.088,366.336,368.577,-276.615,379.151,189.416,156.217,119.556,862.484,180.977,160.607,677.256,164.391,161.724,465.47,158.829,211.766,248.854,93.5721,249.465,209.87,304.178,227.289,205.207
126,0,113.505,439.195,1130.03,140.99,174.313,1137.67,-83.2973,359.058,1201.75,-66.0416,226.057,1200.18,30.5372,492.663,841.337,-1.74299,473.003,644.656,-137.515,476.857,534.006,-309.008,414.17,348.517,-369.34,369.109,377.753,-285.55,379.372,192.106,156.239,118.696,859.922,181.296,160.009,674.402,159.726,161.832,463.103,147.03,212.085,247.275,80.4018,249.357,209.85,291.374,227.807,201.75
127,0,114.308,438.013,1126.44,141.461,172.321,1134.34,-82.8492,358.9,1197.26,-65.9144,225.774,1197.29,38.4003,493.277,837.258,8.32034,474.575,640.237,-128.768,479.417,532.951,-306.845,416.908,354.197,-365.454,371.775,386.902,-292.712,379.921,195.633,155.604,117.535,857.41,181.104,159.227,671.566,154.574,161.81,460.805,134.87,212.261,245.867,67.0208,249.246,209.901,278.419,227.995,199.06
128,0,114.931,436.889,1122.98,141.687,170.307,1131.21,-82.6057,358.777,1192.97,-65.9858,225.595,1194.59,46.0558,493.936,833.632,18.5705,476.104,636.243,-119.376,481.962,532.101,-303.452,419.517,360.019,-360.559,374.256,395.868,-297.72,380.878,199.971,154.212,116.086,854.946,180.271,158.258,668.769,148.951,161.65,458.601,122.564,212.289,244.643,53.6716,249.121,210.007,265.515,227.905,197.122
129,0,115.384,435.832,1119.73,141.67,168.31,1128.34,-82.5441,358.682,1188.98,-66.2406,225.507,1192.14,53.3468,494.593,830.538,28.9527,477.557,632.791,-109.417,484.43,531.518,-298.93,421.955,365.967,-354.793,376.484,404.478,-300.222,382.311,205.023,152,114.386,852.536,178.689,157.112,666.04,142.863,161.351,456.515,110.272,212.171,243.605,40.5254,248.971,210.154,252.787,227.602,195.852
130,0,115.684,434.847,1116.77,141.418,166.364,1125.8,-82.6376,358.606,1185.4,-66.66,225.497,1190,60.1369,495.204,828.023,39.4249,478.9,629.98,-98.9702,486.764,531.252,-293.36,424.174,371.979,-348.292,378.406,412.547,-299.929,384.255,210.631,148.954,112.495,850.197,176.282,155.817,663.407,136.316,160.924,454.57,98.1026,211.917,242.745,27.6852,248.787,210.331,240.295,227.154,195.118
131,0,115.85,433.934,1114.19,140.943,164.502,1123.62,-82.8572,358.545,1182.32,-67.2226,225.548,1188.21,66.3204,495.728,826.107,49.9549,480.108,627.89,-88.1166,488.906,531.34,-286.805,426.131,377.951,-341.182,379.992,419.888,-296.648,386.706,216.586,145.101,110.486,847.955,173.003,154.409,660.906,129.311,160.384,452.789,86.1182,211.546,242.053,15.1931,248.562,210.536,228.047,226.627,194.77
132,0,115.901,433.091,1112.04,140.261,162.751,1121.84,-83.1742,358.495,1179.81,-67.9058,225.643,1186.8,71.8306,496.137,824.785,60.5167,481.156,626.58,-76.9403,490.805,531.804,-279.312,427.788,383.737,-333.568,381.233,426.316,-290.299,389.611,222.643,140.516,108.445,845.853,168.836,152.936,658.572,121.847,159.756,451.195,74.3386,211.083,241.516,3.04229,248.295,210.771,216.018,226.074,194.66
133,0,115.856,432.315,1110.4,139.394,161.134,1120.48,-83.5617,358.457,1177.91,-68.6862,225.766,1185.82,76.6452,496.414,824.04,71.0862,482.027,626.086,-65.5269,492.415,532.65,-270.914,429.122,389.161,-325.527,382.143,431.655,-280.932,392.87,228.546,135.308,106.456,843.939,163.791,151.453,656.446,113.927,159.069,449.81,62.7517,210.555,241.122,-8.80992,247.986,211.046,204.164,225.538,194.661
134,0,115.734,431.599,1109.29,138.366,159.667,1119.54,-83.9966,358.431,1176.67,-69.541,225.901,1185.26,80.7867,496.554,823.849,81.6366,482.707,626.424,-53.9636,493.701,533.87,-261.638,430.128,394.026,-317.111,382.758,435.744,-268.715,396.341,234.05,129.615,104.605,842.265,157.905,150.017,654.565,105.556,158.356,448.656,51.3228,209.991,240.864,-20.4284,247.638,211.378,192.431,225.043,194.677
135,0,115.55,430.938,1108.74,137.203,158.36,1119.03,-84.4603,358.42,1176.09,-70.4481,226.034,1185.14,84.32,496.568,824.193,92.1346,483.188,627.591,-42.3384,494.638,535.438,-251.515,430.817,398.129,-308.34,383.126,438.441,-253.919,399.86,238.935,123.589,102.965,840.882,151.232,148.682,652.969,96.7425,157.65,447.755,40.004,209.419,240.742,-31.8876,247.259,211.791,180.768,224.605,194.648
136,0,115.315,430.326,1108.76,135.933,157.22,1118.93,-84.9397,358.427,1176.18,-71.3868,226.154,1185.45,87.3448,496.477,825.056,102.537,483.463,629.564,-30.7394,495.214,537.318,-240.585,431.218,401.281,-299.205,383.299,439.631,-236.889,403.255,243.028,117.384,101.596,839.835,143.845,147.498,651.69,87.5033,156.981,447.128,28.7427,208.864,240.763,-43.2616,246.856,212.315,169.127,224.224,194.544
137,0,115.039,429.76,1109.35,134.584,156.246,1119.22,-85.4266,358.454,1176.9,-72.3383,226.253,1186.2,89.9856,496.31,826.429,112.787,483.532,632.302,-19.2533,495.43,539.455,-228.9,431.373,403.312,-289.676,383.333,439.223,-218.008,406.371,246.207,111.145,100.544,839.157,135.826,146.507,650.756,77.8612,156.378,446.794,17.4885,208.346,240.94,-54.6157,246.437,212.985,157.47,223.895,194.363
138,0,114.727,429.238,1110.48,133.184,155.435,1119.87,-85.9172,358.501,1178.21,-73.2853,226.324,1187.35,92.3798,496.097,828.308,122.816,483.399,635.749,-7.96404,495.299,541.785,-216.526,431.332,404.092,-279.703,383.273,437.155,-197.662,409.091,248.408,104.993,99.8342,838.868,127.265,145.738,650.19,67.8471,155.864,446.771,6.19885,207.877,241.293,-66.0019,246.01,213.839,145.764,223.61,194.119
139,0,114.383,428.761,1112.12,131.76,154.782,1120.84,-86.4114,358.569,1180.08,-74.2121,226.366,1188.88,94.665,495.869,830.688,132.539,483.07,639.832,3.04897,494.845,544.231,-203.535,431.148,403.533,-269.216,383.15,433.4,-176.202,411.345,249.619,99.0223,99.4758,838.97,118.257,145.21,650.006,57.4997,155.454,447.074,-5.15805,207.467,241.847,-77.4555,245.582,214.917,133.985,223.356,193.836
140,0,114.009,428.334,1114.24,130.337,154.278,1122.1,-86.9106,358.654,1182.45,-75.1046,226.378,1190.77,96.9661,495.65,833.56,141.86,482.559,644.464,13.7127,494.101,546.707,-190.001,430.872,401.595,-258.137,382.981,427.958,-153.929,413.122,249.879,93.293,99.4611,839.453,108.893,144.927,650.207,46.8646,155.159,447.713,-16.6014,207.116,242.629,-88.9952,245.159,216.258,122.112,223.124,193.538
141,0,113.607,427.964,1116.78,128.938,153.914,1123.61,-87.417,358.754,1185.25,-75.9496,226.362,1192.98,99.3853,495.461,836.908,150.671,481.88,649.546,23.9621,493.109,549.124,-175.988,430.546,398.283,-246.376,382.768,420.868,-131.068,414.469,249.265,87.8314,99.7683,840.292,99.2677,144.882,650.793,35.994,154.98,448.695,-28.1378,206.824,243.665,-100.624,244.748,217.9,110.132,222.903,193.248
142,0,113.181,427.658,1119.7,127.586,153.681,1125.33,-87.9314,358.862,1188.41,-76.7351,226.325,1195.46,101.994,495.314,840.703,158.86,481.053,654.968,33.7423,491.914,551.386,-161.536,430.203,393.646,-233.837,382.5,412.2,-107.771,415.475,247.884,82.6331,100.364,841.451,89.4678,145.058,651.751,24.945,154.914,450.021,-39.7622,206.584,244.978,-112.332,244.352,219.875,98.033,222.688,192.979
143,0,112.736,427.427,1122.93,126.299,153.57,1127.22,-88.452,358.975,1191.87,-77.4492,226.273,1198.19,104.828,495.212,844.903,166.309,480.102,660.613,43.0092,490.564,553.403,-146.661,429.861,387.77,-220.422,382.158,402.061,-84.1216,416.26,245.863,77.6689,101.208,842.889,79.5769,145.428,653.064,13.7781,154.949,451.687,-51.4598,206.386,246.588,-124.1,243.976,222.209,85.8055,222.474,192.74
144,0,112.281,427.28,1126.43,125.094,153.574,1129.24,-88.9735,359.087,1195.55,-78.0807,226.215,1201.12,107.887,495.156,849.454,172.904,479.054,666.356,51.7313,489.105,555.09,-131.342,429.528,380.773,-206.031,381.719,390.593,-60.1421,416.95,243.341,72.8928,102.253,844.563,69.6725,145.959,654.706,2.55583,155.071,453.68,-63.2083,206.22,248.507,-135.899,243.619,224.921,73.4442,222.258,192.531
145,0,111.829,427.224,1130.13,123.988,153.685,1131.38,-89.4863,359.197,1199.39,-78.6185,226.163,1204.2,111.137,495.139,854.289,178.538,477.937,672.073,59.8899,487.583,556.37,-115.528,429.199,372.798,-190.57,381.167,377.973,-35.8161,417.661,240.462,68.2508,103.452,846.429,59.8263,146.614,656.648,-8.659,155.26,455.985,-74.9804,206.074,250.739,-147.699,243.281,228.018,60.9463,222.04,192.348
146,0,111.397,427.268,1133.98,122.993,153.897,1133.58,-89.9763,359.303,1203.33,-79.0516,226.126,1207.39,114.513,495.151,859.33,183.116,476.783,677.641,67.4796,486.041,557.184,-99.142,428.866,364.016,-173.955,380.494,364.412,-11.1051,418.473,237.377,63.6898,104.757,848.447,50.1041,147.355,658.853,-19.8046,155.496,458.575,-86.7463,205.937,253.278,-159.468,242.959,231.5,48.3121,221.818,192.185
147,0,111.007,427.413,1137.92,122.121,154.205,1135.83,-90.4254,359.409,1207.3,-79.3695,226.119,1210.65,117.928,495.185,864.488,186.564,475.625,682.942,74.5075,484.515,557.487,-82.0921,428.517,354.615,-156.124,379.702,350.15,14.0322,419.422,234.239,59.1656,106.123,850.581,40.5668,148.145,661.283,-30.8214,155.758,461.421,-98.4753,205.796,256.111,-171.177,242.645,235.355,35.5451,221.593,192.036
148,0,110.682,427.661,1141.89,121.383,154.604,1138.1,-90.812,359.522,1211.24,-79.5623,226.155,1213.92,121.278,495.232,869.671,188.831,474.495,687.867,80.9929,483.038,557.258,-64.2892,428.14,344.805,-137.04,378.808,335.455,39.624,420.494,231.21,54.6486,107.513,852.8,31.2712,148.951,663.893,-41.6525,156.025,464.484,-110.138,205.64,259.216,-182.799,242.329,239.56,22.652,221.366,191.894
149,0,110.449,428.009,1145.86,120.789,155.092,1140.37,-91.112,359.652,1215.09,-79.621,226.246,1217.17,124.449,495.289,874.777,189.899,473.425,692.322,86.9655,481.637,556.495,-45.6644,427.728,334.81,-116.712,377.84,320.612,65.6707,421.629,228.461,50.1276,108.892,855.076,22.2712,149.743,666.635,-52.2448,156.278,467.719,-121.708,205.458,262.563,-194.311,241.999,244.087,9.64295,221.137,191.758
150,0,110.335,428.448,1149.75,120.346,155.664,1142.6,-91.3005,359.815,1218.79,-79.5382,226.406,1220.33,127.324,495.36,879.7,189.783,472.443,696.225,92.4638,480.333,555.216,-26.1874,427.28,324.865,-95.1977,376.838,305.912,92.134,422.73,226.172,45.612,110.235,857.382,13.6194,150.5,669.458,-62.5487,156.502,471.078,-133.161,205.242,266.114,-205.698,241.64,248.897,-3.46878,220.905,191.626
151,0,110.368,428.971,1153.52,120.06,156.319,1144.78,-91.3531,360.029,1222.3,-79.3083,226.649,1223.37,129.784,495.457,884.33,188.538,471.576,699.516,97.5328,479.142,553.46,-5.88455,426.8,315.205,-72.6205,375.845,291.647,118.927,423.68,224.522,41.131,111.523,859.69,5.36834,151.205,672.306,-72.5182,156.685,474.507,-144.478,204.982,269.829,-216.947,241.236,253.945,-16.6674,220.671,191.502
152,0,110.572,429.565,1157.11,119.937,157.054,1146.87,-91.2476,360.314,1225.56,-78.9285,226.987,1226.23,131.719,495.599,888.555,186.262,470.843,702.154,102.221,478.075,551.281,15.1473,426.295,306.054,-49.1763,374.904,278.088,145.907,424.365,223.678,36.7314,112.745,861.971,-2.42815,151.85,675.121,-82.1113,156.818,477.948,-155.641,204.672,273.663,-228.05,240.771,259.186,-29.9353,220.435,191.388
153,0,110.967,430.217,1160.46,119.98,157.867,1148.85,-90.9653,360.693,1228.53,-78.3988,227.43,1228.85,133.03,495.816,892.264,183.093,470.258,704.118,106.579,477.141,548.747,36.731,425.779,297.614,-25.1388,374.054,265.479,172.867,424.689,223.772,32.4752,113.899,864.187,-9.71438,152.433,677.837,-91.2888,156.897,481.34,-166.637,204.308,277.572,-239.001,240.231,264.571,-43.2539,220.193,191.288
154,0,111.567,430.916,1163.53,120.19,158.757,1150.68,-90.4931,361.19,1231.15,-77.7232,227.988,1231.19,133.636,496.143,895.346,179.213,469.827,705.41,110.655,476.341,545.93,58.6053,425.263,290.047,-0.859367,373.327,254.02,199.536,424.589,224.878,28.435,114.988,866.294,-16.4324,152.955,680.389,-100.015,156.92,484.624,-177.457,203.886,281.51,-249.798,239.608,270.051,-56.6052,219.946,191.205
155,0,112.381,431.649,1166.25,120.566,159.722,1152.32,-89.8241,361.825,1233.39,-76.9094,228.67,1233.2,133.482,496.615,897.703,174.835,469.55,706.05,114.492,475.673,542.909,80.4284,424.76,283.461,23.2387,372.739,243.856,225.576,424.046,226.982,24.69,116.023,868.242,-22.5224,153.423,682.704,-108.257,156.888,487.739,-188.089,203.406,285.435,-260.435,238.895,275.584,-69.9732,219.69,191.136
156,0,113.409,432.407,1168.56,121.103,160.76,1153.74,-88.9591,362.617,1235.19,-75.9694,229.479,1234.82,132.548,497.261,899.248,170.203,469.418,706.079,118.126,475.135,539.759,101.789,424.277,277.902,46.6739,372.296,235.07,250.589,423.081,229.964,21.3223,117.017,869.967,-27.9237,153.848,684.71,-115.985,156.806,490.63,-198.526,202.87,289.31,-270.904,238.094,281.13,-83.3459,219.424,191.075
157,0,114.642,433.184,1170.43,121.793,161.869,1154.88,-87.907,363.583,1236.52,-74.9194,230.418,1235.99,130.861,498.1,899.921,165.575,469.415,705.553,121.587,474.718,536.549,122.224,423.818,273.352,68.9261,371.991,227.685,274.131,421.753,233.585,18.4128,117.991,871.403,-32.576,154.24,686.333,-123.169,156.675,493.243,-208.757,202.278,293.102,-281.19,237.211,286.661,-96.7163,219.144,191.01
158,0,116.066,433.976,1171.8,122.624,163.049,1155.71,-86.6849,364.729,1237.35,-73.7801,231.487,1236.68,128.501,499.132,899.692,161.214,469.518,704.538,124.889,474.413,533.34,141.244,423.382,269.723,89.4626,371.802,221.657,295.729,420.148,237.492,16.0379,118.965,872.475,-36.4216,154.607,687.5,-129.784,156.502,495.534,-218.767,201.635,296.786,-291.27,236.261,292.157,-110.085,218.85,190.922
159,0,117.656,434.786,1172.64,123.58,164.295,1156.17,-85.3185,366.057,1237.64,-72.5754,232.68,1236.84,125.604,500.335,898.572,157.372,469.701,703.109,128.039,474.208,530.183,158.365,422.961,266.877,107.768,371.7,216.894,314.912,418.358,241.248,14.2671,119.958,873.109,-39.4075,154.959,688.139,-135.804,156.287,497.465,-228.537,200.943,300.35,-301.11,235.259,297.61,-123.458,218.542,190.793
160,0,119.383,435.616,1172.91,124.641,165.604,1156.23,-83.8412,367.561,1237.37,-71.333,233.99,1236.43,122.368,501.664,896.617,154.273,469.938,701.348,131.031,474.093,527.116,173.137,422.539,264.638,123.379,371.65,213.258,331.242,416.476,244.375,13.1602,120.988,873.231,-41.4877,155.3,688.189,-141.205,156.034,499.01,-238.042,200.203,303.787,-310.661,234.226,303.025,-136.851,218.222,190.6
161,0,121.211,436.473,1172.61,125.784,166.97,1155.85,-82.2929,369.225,1236.52,-70.0827,235.406,1235.44,119.044,503.056,893.932,152.098,470.203,699.33,133.846,474.057,524.165,185.181,422.099,262.813,135.911,371.615,210.586,344.349,414.578,246.413,12.7653,122.07,872.774,-42.6254,155.631,687.594,-145.962,155.739,500.153,-247.248,199.415,307.105,-319.862,233.178,308.423,-150.281,217.894,190.326
162,0,123.1,437.367,1171.72,126.979,168.386,1155,-80.719,371.026,1235.09,-68.8561,236.914,1233.84,115.919,504.437,890.668,150.974,470.475,697.129,136.459,474.089,521.346,194.214,421.618,261.217,145.091,371.559,208.703,353.966,412.722,246.984,13.1174,123.21,871.686,-42.795,155.95,686.313,-150.051,155.401,500.892,-256.108,198.576,310.324,-328.638,232.133,313.835,-163.768,217.564,189.964
163,0,125.009,438.308,1170.26,128.198,169.841,1153.64,-79.1683,372.93,1233.09,-67.685,238.496,1231.64,113.296,505.732,887.012,150.959,470.741,694.809,138.832,474.183,518.666,200.075,421.075,259.694,150.778,371.453,207.437,359.962,410.943,245.858,14.2368,124.41,869.931,-41.9834,156.25,684.32,-153.446,155.014,501.235,-264.569,197.681,313.475,-336.898,231.1,319.306,-177.324,217.241,189.524
164,0,126.893,439.304,1168.26,129.405,171.322,1151.78,-77.6909,374.899,1230.54,-66.601,240.133,1228.85,111.461,506.88,883.175,152.041,470.998,692.422,140.926,474.334,516.125,202.733,420.453,258.131,152.97,371.275,206.629,362.354,409.259,242.984,16.1279,125.662,867.494,-40.191,156.522,681.611,-156.117,154.571,501.206,-272.562,196.721,316.6,-344.542,230.08,324.889,-190.947,216.936,189.035
165,0,128.711,440.364,1165.77,130.569,172.816,1149.41,-76.3361,376.89,1227.47,-65.6335,241.805,1225.49,110.653,507.843,879.373,154.134,471.253,690.008,142.691,474.541,513.715,202.294,419.741,256.468,151.808,371.015,206.145,361.317,407.678,238.516,18.7781,126.952,864.387,-37.4318,156.757,678.203,-158.036,154.063,500.841,-280.011,195.688,319.752,-351.463,229.069,330.643,-204.611,216.657,188.553
166,0,130.422,441.493,1162.84,131.655,174.306,1146.55,-75.1501,378.856,1223.94,-64.8093,243.489,1221.61,111.026,508.616,875.803,157.087,471.523,687.592,144.081,474.806,511.428,198.987,418.939,254.695,147.562,370.674,205.878,357.171,406.204,232.786,22.157,128.259,860.648,-33.7329,156.943,674.135,-159.17,153.484,500.185,-286.826,194.574,322.988,-357.552,228.054,336.626,-218.254,216.412,188.16
167,0,131.988,442.692,1159.54,132.63,175.772,1143.23,-74.1732,380.752,1220,-64.1514,245.164,1217.27,112.623,509.228,872.626,160.687,471.835,685.187,145.043,475.133,509.252,193.144,418.06,252.846,140.61,370.263,205.748,350.352,404.841,226.261,26.2158,129.557,856.346,-29.1338,157.072,669.474,-159.485,152.827,499.295,-292.915,193.373,326.369,-362.702,227.017,342.888,-231.772,216.205,187.96
168,0,133.375,443.96,1155.97,133.466,177.197,1139.5,-73.4386,382.535,1215.76,-63.6778,246.81,1212.55,115.361,509.738,869.943,164.681,472.221,682.796,145.527,475.527,507.174,185.174,417.13,250.986,131.405,369.803,205.702,341.372,403.599,219.47,30.8876,130.816,851.574,-23.6842,157.137,664.31,-158.95,152.089,498.234,-298.18,192.085,329.953,-366.817,225.942,349.469,-245.01,216.028,188.075
169,0,134.555,445.29,1152.22,134.138,178.562,1135.44,-72.9703,384.168,1211.29,-63.4016,248.406,1207.52,119.024,510.228,867.789,168.788,472.714,680.413,145.484,475.996,505.181,175.523,416.184,249.188,120.439,369.322,205.707,330.766,402.491,212.927,36.0876,132.008,846.447,-17.4424,157.135,658.755,-157.534,151.271,497.07,-302.522,190.713,333.794,-369.819,224.812,356.389,-257.761,215.867,188.631
170,0,135.504,446.672,1148.37,134.625,179.85,1131.12,-72.7821,385.623,1206.69,-63.3299,249.935,1202.3,123.281,510.787,866.131,172.721,473.346,678.029,144.867,476.545,503.264,164.64,415.267,247.524,108.206,368.85,205.746,319.051,401.533,207.061,41.7148,133.105,841.1,-10.4732,157.068,652.94,-155.208,150.378,495.871,-305.85,189.272,337.93,-371.65,223.62,363.641,-269.764,215.693,189.746
171,0,136.203,448.092,1144.54,134.913,181.049,1126.64,-72.8776,386.88,1202.09,-63.4645,251.382,1196.98,127.714,511.497,864.87,176.205,474.141,675.633,143.633,477.175,501.411,152.944,414.424,246.05,95.1699,368.416,205.813,306.677,400.737,202.167,47.6542,134.086,835.677,-2.84534,156.943,647.011,-151.954,149.421,494.706,-308.078,187.779,342.383,-372.279,222.366,371.191,-280.719,215.465,191.519
172,0,136.641,449.532,1140.81,134.993,182.147,1122.1,-73.2501,387.93,1197.59,-63.8014,252.735,1191.69,131.864,512.42,863.867,178.992,475.113,673.217,141.741,477.886,499.615,140.801,413.696,244.798,81.7341,368.044,205.91,294.008,400.108,198.385,53.7811,134.935,830.327,5.37021,156.771,641.123,-147.76,148.418,493.639,-309.138,186.262,347.156,-371.702,221.064,378.975,-290.296,215.132,194.011
173,0,136.809,450.977,1137.27,134.864,183.14,1117.61,-73.884,388.778,1193.3,-64.3319,253.985,1186.52,135.278,513.588,862.961,180.875,476.263,670.783,139.159,478.673,497.873,128.501,413.115,243.775,68.2259,367.754,206.04,281.307,399.642,195.708,59.9653,135.644,825.195,14.102,156.569,635.434,-142.626,147.392,492.729,-308.977,184.753,352.225,-369.947,219.738,386.896,-298.153,214.636,197.237
174,0,136.705,452.407,1134.01,134.53,184.029,1113.29,-74.7561,389.436,1189.32,-65.0427,255.125,1181.61,137.562,515,861.996,181.699,477.576,668.336,135.859,479.525,496.185,116.26,412.698,242.967,54.8864,367.552,206.209,268.741,399.326,194.008,66.0774,136.215,820.414,23.2791,156.358,630.099,-136.569,146.372,492.027,-307.562,183.285,357.54,-367.065,218.421,394.831,-303.964,213.92,201.161
175,0,136.331,453.807,1131.08,134.001,184.819,1109.24,-75.8378,389.925,1185.76,-65.9176,256.151,1177.04,138.423,516.62,860.851,181.363,479.026,665.897,131.825,480.425,494.558,104.213,412.448,242.346,41.8708,367.441,206.422,256.395,399.135,193.085,71.9956,136.654,816.104,32.8319,156.158,625.265,-129.619,145.388,491.574,-304.882,181.895,363.026,-363.132,217.153,402.632,-307.439,212.936,205.692
176,0,135.692,455.161,1128.54,133.291,185.522,1105.58,-77.097,390.272,1182.68,-66.9376,257.062,1172.93,137.698,518.387,859.455,179.819,480.57,663.493,127.049,481.355,493.002,92.428,412.352,241.877,29.256,367.413,206.686,244.289,399.038,192.707,77.6126,136.979,812.364,42.6923,155.995,621.064,-121.822,144.474,491.4,-300.949,180.615,368.582,-358.239,215.973,410.129,-308.343,211.656,210.69
177,0,134.798,456.459,1126.42,132.418,186.153,1102.38,-78.501,390.508,1180.16,-68.0825,257.858,1169.35,135.367,520.218,857.8,177.071,482.16,661.163,121.533,482.292,491.537,80.9182,412.387,241.526,17.0543,367.458,207.006,232.403,399.004,192.65,82.8424,137.206,809.27,52.7926,155.891,617.61,-113.242,143.665,491.526,-295.794,179.472,374.085,-352.488,214.917,417.142,-306.524,210.079,215.978
178,0,133.662,457.691,1124.76,131.402,186.73,1099.75,-80.0182,390.663,1178.24,-69.3316,258.541,1166.39,131.547,522.025,855.938,173.165,483.739,658.952,115.291,483.211,490.185,69.6551,412.523,241.267,5.22878,367.563,207.391,220.694,399.001,192.729,87.6257,137.36,806.88,63.0654,155.868,614.997,-103.958,142.991,491.961,-289.47,178.486,379.393,-345.982,214.013,423.484,-301.912,208.236,221.351
179,0,132.299,458.854,1123.57,130.264,187.272,1097.73,-81.62,390.765,1176.96,-70.6649,259.115,1164.08,126.463,523.721,853.977,168.177,485.25,656.91,108.347,484.089,488.974,58.5837,412.727,241.087,-6.28936,367.716,207.849,209.11,399.003,192.811,91.9337,137.46,805.229,73.4422,155.944,613.293,-94.0611,142.478,492.704,-282.043,177.669,384.354,-338.82,213.274,428.968,-294.531,206.194,226.597
180,0,130.727,459.945,1122.83,129.028,187.801,1096.37,-83.2818,390.839,1176.32,-72.0633,259.585,1162.49,120.421,525.228,852.056,162.208,486.639,655.088,100.733,484.903,487.937,47.6354,412.973,240.987,-17.5854,367.909,208.394,197.601,398.99,192.816,95.7699,137.525,804.335,83.8522,156.132,612.545,-83.6528,142.148,493.742,-273.592,177.024,388.81,-331.088,212.704,433.415,-284.49,204.046,231.513
181,0,128.966,460.964,1122.53,127.713,188.333,1095.71,-84.9841,390.903,1176.33,-73.5095,259.955,1161.61,113.755,526.486,850.33,155.368,487.859,653.536,92.4893,485.633,487.106,36.7369,413.243,240.981,-28.7476,368.138,209.037,186.122,398.948,192.715,99.1683,137.572,804.201,94.2218,156.44,612.772,-72.8417,142.01,495.053,-264.199,176.545,392.603,-322.855,212.291,436.66,-271.97,201.906,235.92
182,0,127.037,461.916,1122.67,126.341,188.884,1095.75,-86.7118,390.966,1176.95,-74.9879,260.232,1161.47,106.788,527.456,848.939,147.769,488.871,652.296,83.6603,486.261,486.514,25.818,413.527,241.095,-39.8573,368.403,209.797,174.637,398.872,192.512,102.19,137.61,804.818,104.474,156.872,613.969,-61.7391,142.067,496.606,-253.951,176.222,395.586,-314.169,212.017,438.558,-257.204,199.891,239.678
183,0,124.963,462.802,1123.2,124.931,189.462,1096.47,-88.4547,391.034,1178.15,-76.4852,260.422,1162.05,99.7973,528.116,847.997,139.517,489.648,651.405,74.2934,486.776,486.193,14.8157,413.826,241.362,-50.9824,368.707,210.689,163.118,398.761,192.232,104.915,137.645,806.168,114.528,157.423,616.109,-50.455,142.311,498.359,-242.928,176.037,397.626,-305.052,211.856,438.987,-240.459,198.11,242.692
184,0,122.767,463.625,1124.09,123.499,190.073,1097.86,-90.2054,391.104,1179.88,-77.9897,260.533,1163.31,92.9826,528.466,847.575,130.707,490.176,650.889,64.4369,487.168,486.168,3.67781,414.148,241.822,-62.173,369.052,211.732,151.545,398.618,191.911,107.439,137.678,808.226,124.3,158.083,619.142,-39.094,142.726,500.261,-231.203,175.971,398.615,-295.499,211.782,437.859,-222.008,196.645,244.918
185,0,120.475,464.388,1125.31,122.06,190.716,1099.86,-91.959,391.168,1182.09,-79.4909,260.572,1165.22,86.4566,528.52,847.699,121.419,490.452,650.764,54.1378,487.432,486.46,-7.63446,414.506,242.511,-73.4618,369.44,212.943,139.902,398.449,191.584,109.856,137.706,810.958,133.703,158.835,622.999,-27.7525,143.286,502.258,-218.833,176.004,398.471,-285.481,211.774,435.119,-202.12,195.542,246.356
186,0,118.11,465.091,1126.83,120.63,191.384,1102.44,-93.7112,391.215,1184.72,-80.9798,260.545,1167.73,80.2441,528.303,848.349,111.717,490.484,651.036,43.4414,487.563,487.086,-19.1435,414.905,243.461,-84.8642,369.866,214.338,128.174,398.255,191.277,112.256,137.726,814.326,142.652,159.659,627.593,-16.5154,143.961,504.285,-205.863,176.116,397.147,-274.945,211.82,430.75,-181.04,194.804,247.052
187,0,115.697,465.732,1128.6,119.221,192.066,1105.53,-95.4572,391.233,1187.7,-82.4476,260.46,1170.76,74.2948,527.848,849.471,101.651,490.29,651.701,32.3899,487.563,488.052,-30.8521,415.344,244.69,-96.3818,370.319,215.934,116.352,398.04,191.01,114.715,137.732,818.286,151.06,160.53,632.822,-5.45444,144.715,506.276,-192.32,176.294,394.631,-263.82,211.916,424.777,-158.982,194.389,247.08
188,0,113.263,466.307,1130.6,117.845,192.747,1109.06,-97.1906,391.208,1190.97,-83.8855,260.325,1174.25,68.5045,527.188,850.989,91.2608,489.894,652.748,21.0237,487.431,489.36,-42.7396,415.81,246.203,-108.005,370.777,217.743,104.427,397.803,190.789,117.283,137.72,822.786,158.845,161.421,638.572,5.37263,145.51,508.165,-178.213,176.527,390.947,-252.017,212.073,417.268,-136.126,194.22,246.535
189,0,110.83,466.811,1132.77,116.515,193.411,1112.97,-98.9024,391.128,1194.47,-85.2844,260.145,1178.13,62.7403,526.358,852.814,80.5761,489.324,654.156,9.38156,487.17,491.002,-54.7589,416.267,247.984,-119.717,371.212,219.777,92.392,397.543,190.616,119.985,137.686,827.767,165.929,162.301,644.722,15.9222,146.311,509.887,-163.539,176.808,386.157,-239.443,212.307,408.331,-112.622,194.195,245.523
190,0,108.424,467.236,1135.1,115.242,194.04,1117.18,-100.581,390.984,1198.13,-86.6343,259.925,1182.31,56.8669,525.39,854.862,69.6248,488.611,655.901,-2.49773,486.784,492.968,-66.8356,416.666,249.994,-131.498,371.59,222.047,80.2399,397.256,190.484,122.817,137.627,833.161,172.243,163.143,651.145,26.1638,147.083,511.38,-148.285,177.138,380.357,-226.003,212.643,398.116,-88.5889,194.198,244.149
191,0,106.066,467.576,1137.54,114.04,194.617,1121.62,-102.211,390.769,1201.91,-87.9242,259.671,1186.71,50.7689,524.308,857.055,58.4362,487.785,657.952,-14.5734,486.275,495.236,-78.8695,416.939,252.177,-143.324,371.872,224.558,67.965,396.94,190.385,125.747,137.542,838.89,177.724,163.918,657.71,36.0784,147.797,512.594,-132.432,177.517,373.675,-211.612,213.108,386.809,-64.1266,194.125,242.51
192,0,103.779,467.822,1140.07,112.919,195.127,1126.22,-103.776,390.478,1205.76,-89.1425,259.383,1191.26,44.3678,523.136,859.336,47.0461,486.876,660.274,-26.8008,485.65,497.784,-90.7412,417.009,254.458,-155.173,372.022,227.316,55.5623,396.591,190.308,128.717,137.428,844.869,182.325,164.602,664.29,45.6558,148.43,513.488,-115.964,177.953,366.266,-196.203,213.727,374.628,-39.3211,193.89,240.693
193,0,101.583,467.968,1142.65,111.894,195.56,1130.92,-105.256,390.112,1209.62,-90.2762,259.064,1195.86,37.6314,521.891,861.659,35.5007,485.907,662.83,-39.1296,484.912,500.58,-102.324,416.799,256.754,-167.026,372.006,230.322,43.0277,396.208,190.243,131.651,137.283,851.003,186.009,165.171,670.762,54.8925,148.965,514.034,-98.8743,178.45,358.306,-179.736,214.519,361.81,-14.2525,193.443,238.777
194,0,99.4976,468.009,1145.24,110.976,195.907,1135.65,-106.63,389.671,1213.47,-91.3122,258.712,1200.46,30.5766,520.589,864,23.8601,484.9,665.575,-51.5026,484.07,503.591,-113.5,416.24,258.983,-178.864,371.801,233.571,30.3583,395.791,190.181,134.46,137.102,857.189,188.757,165.61,677.007,63.7882,149.394,514.22,-81.1728,179.015,349.983,-162.206,215.493,348.611,10.9983,192.773,236.831
195,0,97.5406,467.941,1147.82,110.176,196.165,1140.34,-107.878,389.158,1217.27,-92.2373,258.324,1204.98,23.2652,519.244,866.341,12.2001,483.868,668.464,-63.8541,483.135,506.78,-124.179,415.289,261.081,-190.671,371.395,237.057,17.5531,395.341,190.113,137.052,136.876,863.319,190.565,165.905,682.92,72.3436,149.716,514.048,-62.8926,179.652,341.493,-143.651,216.647,335.287,36.3439,191.913,234.925
196,0,95.7284,467.764,1150.35,109.505,196.335,1144.94,-108.98,388.58,1220.98,-93.0388,257.895,1209.35,15.7955,517.869,868.673,0.613147,482.825,671.446,-76.1106,482.118,510.105,-134.319,413.937,263.006,-202.436,370.793,240.767,4.61335,394.861,190.032,139.339,136.596,869.283,191.448,166.052,688.407,80.5574,149.936,513.534,-44.0963,180.364,333.03,-124.157,217.971,322.088,61.6858,190.931,233.131
197,0,94.0753,467.479,1152.79,108.973,196.421,1149.37,-109.919,387.94,1224.57,-93.7052,257.418,1213.51,8.2915,516.478,870.987,-10.7925,481.775,674.467,-88.1906,481.035,513.521,-143.942,412.219,264.759,-214.148,370.012,244.684,-8.45744,394.356,189.935,141.241,136.247,874.967,191.44,166.05,693.385,88.4247,150.067,512.707,-24.881,181.148,324.775,-103.863,219.443,309.246,86.91,189.92,231.529
198,0,92.5937,467.087,1155.12,108.586,196.429,1153.6,-110.68,387.243,1228.01,-94.2267,256.884,1217.4,0.890947,515.085,873.27,-21.8951,480.723,677.468,-100.007,479.905,516.982,-153.138,410.217,266.38,-225.801,369.086,248.786,-21.6531,393.83,189.818,142.699,135.816,880.261,190.594,165.907,697.789,95.9352,150.126,511.602,-5.38086,182.003,316.89,-82.9589,221.037,296.963,111.884,188.987,230.205
199,0,91.294,466.593,1157.3,108.349,196.367,1157.55,-111.252,386.492,1231.27,-94.5965,256.285,1220.97,-6.2655,513.702,875.504,-32.5629,479.671,680.388,-111.467,478.749,520.441,-162.065,408.056,267.951,-237.392,368.063,253.049,-34.9652,393.288,189.683,143.671,135.286,885.061,188.982,165.637,701.57,103.072,150.136,510.263,14.232,182.922,309.511,-61.6854,222.725,285.407,136.455,188.24,229.243
200,0,90.1839,466.003,1159.29,108.265,196.242,1161.18,-111.63,385.689,1234.31,-94.8106,255.609,1224.17,-13.0431,512.341,877.659,-42.6581,478.62,683.163,-122.478,477.592,523.847,-170.93,405.891,269.587,-248.918,367,257.449,-48.3834,392.736,189.533,144.14,134.647,889.271,186.695,165.259,704.694,109.814,150.122,508.731,33.7488,183.902,302.74,-40.3292,224.476,274.703,160.445,187.772,228.723
201,0,89.2682,465.32,1161.06,108.332,196.062,1164.42,-111.815,384.835,1237.08,-94.8687,254.848,1226.97,-19.3196,511.012,879.696,-52.043,477.573,685.725,-132.946,476.46,527.151,-179.957,403.891,271.414,-260.378,365.96,261.959,-61.896,392.176,189.372,144.113,133.892,892.808,183.84,164.799,707.143,116.13,150.11,507.049,52.9278,184.936,296.642,-19.2145,226.265,264.93,183.657,187.657,228.697
202,0,88.5483,464.551,1162.57,108.547,195.829,1167.24,-111.811,383.927,1239.55,-94.7748,253.99,1229.34,-24.9886,509.719,881.568,-60.5842,476.537,688.009,-142.783,475.381,530.302,-189.354,402.217,273.553,-271.769,365.008,266.558,-75.4904,391.613,189.209,143.619,133.021,895.602,180.539,164.286,708.915,121.987,150.127,505.25,71.5004,186.021,291.241,1.30714,228.065,256.128,205.864,187.948,229.179
203,0,88.0222,463.7,1163.8,108.904,195.545,1169.58,-111.63,382.963,1241.66,-94.5372,253.027,1231.23,-29.9616,508.467,883.219,-68.1591,475.521,689.949,-151.904,474.383,533.253,-199.274,400.998,276.092,-283.082,364.205,271.227,-89.1537,391.051,189.051,142.707,132.044,897.605,176.923,163.752,710.021,127.347,150.199,503.361,89.1792,187.156,286.523,20.8698,229.855,248.298,226.822,188.673,230.13
204,0,87.6837,462.769,1164.72,109.393,195.206,1171.41,-111.291,381.939,1243.36,-94.1684,251.954,1232.63,-34.1673,507.256,884.586,-74.6594,474.54,691.481,-160.235,473.492,535.957,-209.786,400.315,279.076,-294.3,363.605,275.953,-102.873,390.496,188.902,141.44,130.98,898.786,173.129,163.23,710.483,132.169,150.349,501.399,105.668,188.339,282.438,39.108,231.61,241.411,246.267,189.839,231.45
205,0,87.5223,461.762,1165.3,110.001,194.805,1172.69,-110.815,380.851,1244.61,-93.6852,250.767,1233.51,-37.5508,506.083,885.605,-79.9962,473.613,692.548,-167.709,472.736,538.373,-220.859,400.195,282.495,-305.393,363.249,280.733,-116.635,389.952,188.764,139.896,129.859,899.139,169.297,162.751,710.336,136.414,150.595,499.372,120.673,189.574,278.907,55.673,233.299,235.42,263.922,191.438,232.971
206,0,87.5229,460.68,1165.51,110.714,194.331,1173.4,-110.232,379.696,1245.35,-93.1086,249.464,1233.89,-40.0716,504.944,886.209,-84.1019,472.763,693.098,-174.27,472.137,540.463,-232.366,400.608,286.289,-316.313,363.163,285.572,-130.427,389.423,188.634,138.157,128.716,898.682,165.561,162.343,709.621,140.041,150.95,497.28,133.916,190.861,275.831,70.2491,234.885,230.269,279.509,193.446,234.477
207,0,87.6662,459.524,1165.34,111.515,193.77,1173.53,-109.574,378.47,1245.54,-92.4627,248.051,1233.74,-41.7016,503.838,886.337,-86.9328,472.018,693.089,-179.872,471.715,542.198,-244.103,401.48,290.361,-326.99,363.359,290.483,-144.238,388.914,188.5,136.31,127.59,897.456,162.044,162.028,708.388,143.014,151.421,495.116,145.148,192.201,273.102,82.5694,236.319,225.901,292.759,195.826,235.715
208,0,87.9286,458.295,1164.78,112.383,193.106,1173.08,-108.877,377.173,1245.15,-91.7745,246.533,1233.07,-42.4241,502.764,885.933,-88.4691,471.406,692.491,-184.478,471.486,543.555,-255.816,402.71,294.596,-337.335,363.831,295.493,-158.056,388.425,188.349,134.438,126.521,895.526,158.854,161.82,706.691,145.304,152.006,492.872,154.158,193.59,270.611,92.4302,237.542,222.27,303.429,198.526,236.427
209,0,88.2826,456.995,1163.82,113.299,192.322,1172.06,-108.178,375.805,1244.14,-91.073,244.922,1231.91,-42.2326,501.724,884.952,-88.715,470.957,691.284,-188.064,471.464,544.523,-267.233,404.189,298.884,-347.232,364.559,300.636,-171.866,387.954,188.163,132.62,125.54,892.979,156.075,161.723,704.587,146.887,152.695,490.537,160.792,195.022,268.262,99.7017,238.484,219.343,311.32,201.478,236.388
210,0,88.6982,455.628,1162.45,114.239,191.402,1170.48,-107.515,374.372,1242.51,-90.3879,243.233,1230.27,-41.1304,500.725,883.367,-87.6973,470.697,689.466,-190.609,471.655,545.1,-278.094,405.813,303.133,-356.546,365.51,305.957,-185.653,387.495,187.927,130.922,124.672,889.918,153.768,161.73,702.135,147.746,153.471,488.106,164.955,196.48,265.977,104.334,239.072,217.1,316.296,204.596,235.433
211,0,89.143,454.198,1160.69,115.178,190.331,1168.4,-106.926,372.878,1240.25,-89.7492,241.486,1228.19,-39.1309,499.781,881.17,-85.4634,470.65,687.05,-192.105,472.063,545.297,-288.172,407.502,307.291,-365.129,366.644,311.507,-199.396,387.038,187.64,129.4,123.927,886.46,151.959,161.825,699.396,147.876,154.306,485.575,166.621,197.946,263.703,106.361,239.239,215.527,318.302,207.777,233.487
212,0,89.5844,452.714,1158.55,116.091,189.099,1165.85,-106.446,371.335,1237.38,-89.1854,239.7,1225.71,-36.2594,498.909,878.376,-82.0782,470.834,684.067,-192.548,472.688,545.136,-297.282,409.198,311.341,-372.822,367.912,317.339,-213.064,386.571,187.313,128.092,123.296,882.728,150.648,161.978,696.43,147.28,155.169,482.951,165.836,199.39,261.416,105.889,238.929,214.612,317.381,210.908,230.582
213,0,89.9901,451.185,1156.05,116.953,187.703,1162.89,-106.104,369.755,1233.94,-88.7232,237.901,1222.89,-32.5545,498.131,875.032,-77.6219,471.257,680.565,-191.942,473.523,544.653,-305.287,410.871,315.308,-379.468,369.267,323.508,-226.61,386.082,186.987,127.017,122.757,878.846,149.798,162.153,693.294,145.967,156.021,480.247,162.718,200.779,259.115,103.097,238.115,214.332,313.681,213.871,226.85
214,0,90.3303,449.625,1153.23,117.738,186.142,1159.61,-105.927,368.153,1229.98,-88.386,236.112,1219.77,-28.071,497.472,871.21,-72.1856,471.92,676.609,-190.297,474.561,543.894,-312.097,412.512,319.249,-384.923,370.66,330.061,-239.964,385.565,186.728,126.175,122.274,874.931,149.342,162.308,690.043,143.959,156.822,477.48,157.447,202.076,256.823,98.2095,236.801,214.643,307.447,216.556,222.513
215,0,90.5787,448.049,1150.12,118.419,184.424,1156.07,-105.931,366.546,1225.58,-88.1933,234.359,1216.43,-22.8827,496.955,867.009,-65.8686,472.812,672.282,-187.629,475.787,542.916,-317.655,414.128,323.242,-389.068,372.044,337.033,-253.028,385.025,186.634,125.538,121.797,871.085,149.184,162.395,686.728,141.279,157.53,474.677,150.258,203.243,254.578,91.4864,235.036,215.472,299.014,218.867,217.852
216,0,90.7141,446.473,1146.77,118.974,182.564,1152.36,-106.127,364.953,1220.83,-88.1601,232.665,1212.93,-17.0848,496.602,862.554,-58.7741,473.915,667.682,-183.961,477.184,541.783,-321.935,415.726,327.376,-391.812,373.377,344.44,-265.664,384.48,186.829,125.059,121.275,867.395,149.202,162.368,683.395,137.957,158.106,471.865,141.424,204.243,252.426,83.1991,232.91,216.713,288.777,220.736,213.164
217,0,90.721,444.914,1143.25,119.378,180.582,1148.56,-106.514,363.392,1215.83,-88.2962,231.053,1209.36,-10.7944,496.427,857.982,-51.0064,475.201,662.917,-179.324,478.73,540.566,-324.93,417.315,331.736,-393.11,374.618,352.274,-277.69,383.969,187.452,124.666,120.654,863.924,149.259,162.186,680.083,134.022,158.517,469.074,131.243,205.047,250.411,73.6135,230.553,218.231,277.16,222.126,208.728
218,0,90.591,443.39,1139.62,119.613,178.506,1144.77,-107.087,361.883,1210.7,-88.6064,229.543,1205.77,-4.15062,496.435,853.438,-42.6674,476.634,658.107,-173.755,480.4,539.338,-326.648,418.889,336.393,-392.958,375.727,360.497,-288.876,383.547,188.642,124.266,119.888,860.711,149.203,161.813,676.823,129.504,158.737,466.334,120.016,205.633,248.571,62.9751,228.124,219.868,264.582,223.036,204.769
219,0,90.3225,441.915,1135.94,119.662,176.365,1141.06,-107.828,360.444,1205.54,-89.09,228.15,1202.26,2.68905,496.618,849.059,-33.8538,478.173,653.373,-167.301,482.162,538.173,-327.111,420.433,341.396,-391.399,376.671,369.039,-298.946,383.288,190.521,123.752,118.943,857.774,148.879,161.226,673.644,124.428,158.752,463.672,108.031,205.989,246.933,51.5005,225.794,221.456,251.421,223.496,201.437
220,0,89.9207,440.501,1132.3,119.513,174.193,1137.5,-108.715,359.093,1200.5,-89.7416,226.887,1198.88,9.55437,496.955,844.968,-24.6553,479.774,648.839,-160.015,483.983,537.14,-326.347,421.916,346.765,-388.517,377.415,377.795,-307.58,383.278,193.175,123.004,117.801,855.112,148.134,160.414,670.564,118.817,158.556,461.11,95.5517,206.117,245.508,39.3731,223.729,222.837,237.995,223.565,198.796
221,0,89.3971,439.158,1128.77,119.159,172.023,1134.17,-109.72,357.845,1195.67,-90.5511,225.761,1195.71,16.2707,497.414,841.267,-15.1528,481.392,644.627,-151.96,485.822,536.303,-324.394,423.296,352.486,-384.431,377.932,386.628,-314.437,383.601,196.636,121.902,116.458,852.707,146.83,159.381,667.6,112.687,158.158,458.668,82.8013,206.03,244.294,26.7444,222.072,223.877,224.547,223.319,196.835
222,0,88.7685,437.889,1125.43,118.597,169.888,1131.12,-110.809,356.714,1191.17,-91.5046,224.776,1192.8,22.6697,497.948,838.024,-5.41766,482.984,640.848,-143.206,487.639,535.717,-321.298,424.526,358.51,-379.286,378.199,395.371,-319.167,384.331,200.874,120.332,114.933,850.532,144.844,158.144,664.765,106.049,157.578,456.364,69.9586,205.752,243.278,13.7372,220.929,224.482,211.239,222.843,195.478
223,0,88.0554,436.694,1122.34,117.828,167.82,1128.4,-111.95,355.711,1187.1,-92.585,223.932,1190.21,28.6006,498.506,835.284,4.48794,484.509,637.604,-133.829,489.387,535.427,-317.106,425.558,364.753,-373.237,378.204,403.836,-321.44,385.513,205.787,118.195,113.255,848.558,142.079,156.736,662.068,98.9118,156.844,454.21,57.1545,205.319,242.436,0.450665,220.357,224.604,198.159,222.223,194.611
224,0,87.2805,435.57,1119.58,116.861,165.844,1126.03,-113.108,354.844,1183.53,-93.7732,223.223,1187.97,33.9422,499.035,833.061,14.5106,485.93,634.983,-123.914,491.02,535.464,-311.87,426.35,371.094,-366.441,377.947,411.815,-320.975,387.152,211.211,115.414,111.472,846.756,138.464,155.201,659.524,91.2798,155.994,452.22,44.4737,204.768,241.743,-13.036,220.368,224.24,185.335,221.533,194.101
225,0,86.4672,434.508,1117.22,115.709,163.982,1124.04,-114.254,354.118,1180.54,-95.0482,222.643,1186.11,38.6124,499.486,831.351,24.604,487.217,633.055,-113.55,492.492,535.848,-305.64,426.871,377.381,-359.044,377.442,419.099,-317.568,389.208,216.929,111.946,109.637,845.102,133.958,153.592,657.146,83.1578,155.068,450.408,31.9591,204.142,241.172,-26.6595,220.927,223.437,172.751,220.837,193.819
226,0,85.6376,433.498,1115.29,114.386,162.25,1122.43,-115.36,353.536,1178.16,-96.3885,222.18,1184.67,42.5761,499.815,830.139,34.7269,488.343,631.875,-102.831,493.758,536.583,-298.466,427.105,383.437,-351.166,376.718,425.475,-311.119,391.587,222.69,107.78,107.813,843.585,128.552,151.966,654.95,74.5526,154.112,448.787,19.6193,203.482,240.703,-40.3693,221.965,222.272,160.36,220.178,193.656
227,0,84.8114,432.53,1113.84,112.914,160.657,1121.2,-116.408,353.095,1176.42,-97.7728,221.823,1183.64,45.8484,499.997,829.406,44.8411,489.288,631.477,-91.8509,494.779,537.661,-290.393,427.055,389.063,-342.903,375.816,430.744,-301.64,394.153,228.233,102.94,106.06,842.2,122.263,150.382,652.958,65.4743,153.167,447.374,7.43704,202.826,240.322,-54.1243,223.386,220.854,148.106,219.587,193.529
228,0,84.0044,431.593,1112.9,111.315,159.209,1120.33,-117.382,352.79,1175.34,-99.18,221.556,1183.04,48.4938,500.018,829.135,54.9084,490.037,631.875,-80.7077,495.52,539.058,-281.464,426.737,394.052,-334.314,374.786,434.723,-289.265,396.742,233.309,97.4874,104.44,840.957,115.133,148.895,651.192,55.939,152.272,446.186,-4.62149,202.202,240.025,-67.8896,225.077,219.306,135.926,219.074,193.385
229,0,83.2282,430.679,1112.49,109.616,157.906,1119.81,-118.277,352.611,1174.9,-100.59,221.366,1182.87,50.621,499.883,829.315,64.888,490.578,633.065,-69.4965,495.957,540.737,-271.723,426.187,398.202,-325.425,373.682,437.256,-274.239,399.183,237.705,91.5103,103.005,839.871,107.228,147.553,649.68,45.9697,151.461,445.244,-16.5985,201.634,239.819,-81.6328,226.918,217.761,123.769,218.643,193.199
230,0,82.4899,429.782,1112.6,107.842,156.745,1119.62,-119.093,352.547,1175.09,-101.985,221.239,1183.1,52.3729,499.613,829.945,74.7344,490.904,635.022,-58.3096,496.074,542.651,-261.214,425.448,401.321,-316.229,372.558,438.214,-256.893,401.323,241.26,85.1203,101.802,838.965,98.6292,146.396,648.447,35.597,150.758,444.57,-28.5372,201.134,239.72,-95.3216,228.787,216.352,111.592,218.285,192.966
231,0,81.792,428.902,1113.22,106.02,155.72,1119.71,-119.835,352.581,1175.86,-103.346,221.16,1183.73,53.914,499.24,831.029,84.3951,491.009,637.703,-47.2345,495.866,544.74,-249.98,424.572,403.246,-306.69,371.455,437.504,-237.613,403.049,243.874,78.4416,100.865,838.265,89.4303,145.451,647.52,24.8596,150.178,444.187,-40.4758,200.707,239.754,-108.923,230.571,215.208,99.3649,217.988,192.694
232,0,81.1333,428.044,1114.34,104.179,154.826,1120.07,-120.513,352.696,1177.19,-104.659,221.119,1184.74,55.4147,498.805,832.575,93.8095,490.894,641.048,-36.352,495.339,546.934,-238.069,423.61,403.849,-296.747,370.405,435.069,-216.806,404.308,245.513,71.602,100.215,837.796,79.7326,144.731,646.925,13.8038,149.728,444.115,-52.4441,200.348,239.955,-122.404,232.167,214.445,87.07,217.738,192.397
233,0,80.5101,427.217,1115.92,102.344,154.056,1120.66,-121.14,352.871,1179.03,-105.908,221.104,1186.09,57.0357,498.352,834.59,102.908,490.558,644.978,-25.735,494.51,549.156,-225.525,422.611,403.045,-286.323,369.424,430.89,-194.857,405.115,246.206,64.7229,99.8625,837.581,69.6408,144.239,646.681,2.48264,149.408,444.375,-64.4604,200.049,240.357,-135.734,233.497,214.16,74.6983,217.52,192.09
234,0,79.9172,426.434,1117.92,100.542,153.406,1121.45,-121.729,353.088,1181.3,-107.08,221.109,1187.77,58.9132,497.924,837.076,111.611,490.007,649.402,-15.4468,493.404,551.323,-212.387,421.614,400.796,-275.323,368.509,424.99,-172.103,405.548,246.033,57.9109,99.8044,837.637,59.2599,143.964,646.806,-9.04539,149.206,444.986,-76.5317,199.795,241.001,-148.885,234.503,214.433,62.247,217.321,191.786
235,0,79.3495,425.713,1120.3,98.7958,152.872,1122.43,-122.29,353.326,1183.97,-108.162,221.126,1189.74,61.1465,497.556,840.023,119.832,489.249,654.216,-5.54047,492.054,553.352,-198.686,420.649,397.117,-263.646,367.647,417.431,-148.807,405.741,245.111,51.2517,100.025,837.976,48.6917,143.886,647.309,-20.7177,149.108,445.96,-88.6534,199.569,241.924,-161.838,235.156,215.317,49.7166,217.129,191.491
236,0,78.8035,425.075,1123.01,97.1296,152.453,1123.57,-122.833,353.571,1186.96,-109.141,221.154,1191.97,63.7904,497.274,843.412,127.48,488.296,659.306,3.94196,490.502,555.159,-184.439,419.737,392.068,-251.188,366.816,408.312,-125.153,405.861,243.579,44.806,100.5,838.603,38.0333,143.977,648.194,-32.4694,149.094,447.305,-100.811,199.353,243.159,-174.578,235.455,216.843,37.1083,216.935,191.208
237,0,78.2784,424.539,1126,95.564,152.149,1124.86,-123.362,353.809,1190.22,-110.006,221.192,1194.44,66.8517,497.094,847.207,134.457,487.163,664.555,12.9695,488.789,556.667,-169.644,418.888,385.754,-237.842,365.99,397.772,-101.243,406.077,241.579,38.6091,101.195,839.515,27.3757,144.204,649.457,-44.2342,149.143,449.025,-112.983,199.131,244.736,-187.101,235.42,219.018,24.4226,216.732,190.936
238,0,77.7771,424.125,1129.22,94.1188,151.962,1126.27,-123.873,354.031,1193.69,-110.745,221.242,1197.11,70.2911,497.016,851.359,140.669,485.872,669.843,21.5223,486.963,557.806,-154.283,418.106,378.319,-223.51,365.147,385.986,-77.1189,406.54,239.249,32.6725,102.07,840.706,16.8031,144.534,651.086,-55.9465,149.231,451.113,-125.14,198.889,246.675,-199.408,235.093,221.829,11.658,216.513,190.675
239,0,77.3073,423.849,1132.61,92.812,151.897,1127.79,-124.36,354.234,1197.3,-111.346,221.31,1199.95,74.0295,497.031,855.807,146.025,484.449,675.053,29.591,485.068,558.521,-138.32,417.391,369.941,-208.1,364.275,373.161,-52.7725,407.353,236.715,26.9883,103.082,842.163,6.39305,144.931,653.06,-67.5418,149.337,453.558,-137.253,198.615,248.987,-211.506,234.526,225.247,-1.18853,216.277,190.423
240,0,76.8816,423.725,1136.13,91.66,151.956,1129.41,-124.809,354.42,1201.01,-111.798,221.401,1202.92,77.9574,497.12,860.474,150.444,482.922,680.073,37.1767,483.15,558.769,-121.705,416.74,360.825,-191.54,363.376,359.532,-28.172,408.554,234.092,21.5358,104.189,843.868,-3.78272,145.364,655.353,-78.9577,149.442,456.336,-149.288,198.301,251.672,-223.403,233.781,229.227,-14.1212,216.021,190.181
241,0,76.5172,423.76,1139.72,90.6778,152.144,1131.12,-125.199,354.596,1204.76,-112.089,221.525,1205.99,81.9454,497.26,865.277,153.862,481.327,684.801,44.2891,481.249,558.529,-104.385,416.154,351.194,-173.778,362.466,345.356,-3.27906,410.112,231.487,16.2883,105.349,845.801,-13.6575,145.808,657.926,-90.1345,149.531,459.417,-161.215,197.942,254.719,-235.11,232.915,233.715,-27.1437,215.747,189.952
242,0,76.2356,423.954,1143.34,89.8786,152.463,1132.91,-125.506,354.775,1208.49,-112.21,221.691,1209.12,85.8558,497.424,870.121,156.234,479.7,689.148,50.9462,479.405,557.797,-86.3118,415.632,341.286,-154.8,361.576,330.908,21.9346,411.926,229.012,11.2205,106.526,847.937,-23.1682,146.239,660.733,-101.015,149.591,462.761,-173.002,197.535,258.107,-246.635,231.984,238.65,-40.2581,215.455,189.741
243,0,76.0615,424.305,1146.94,89.274,152.914,1134.74,-125.705,354.973,1212.15,-112.151,221.911,1212.26,89.5523,497.59,874.909,157.544,478.08,693.04,57.1728,477.651,556.587,-67.4579,415.18,331.344,-134.63,360.745,316.466,47.4744,413.843,226.785,6.31555,107.69,850.244,-32.2535,146.645,663.723,-111.546,149.617,466.32,-184.622,197.08,261.804,-257.984,231.033,243.967,-53.4631,215.15,189.555
244,0,76.0216,424.801,1150.49,88.8739,153.496,1136.62,-125.765,355.21,1215.7,-111.905,222.194,1215.38,92.9073,497.744,879.533,157.806,476.507,696.419,62.9987,476.02,554.932,-47.8287,414.8,321.607,-113.347,360.021,302.307,73.313,415.679,224.941,1.57022,108.817,852.688,-40.8525,147.016,666.831,-121.674,149.604,470.036,-196.052,196.58,265.768,-269.158,230.094,249.601,-66.7538,214.836,189.4
245,0,76.1429,425.428,1153.92,88.6857,154.208,1138.51,-125.659,355.507,1219.09,-111.466,222.552,1218.41,95.808,497.882,883.887,157.069,475.017,699.243,68.4572,474.535,552.879,-27.478,414.499,312.298,-91.0923,359.448,288.691,99.3805,417.249,223.624,-3.00134,109.894,855.226,-48.9034,147.351,669.991,-131.352,149.552,473.848,-207.269,196.038,269.949,-280.156,229.188,255.484,-80.1204,214.516,189.279
246,0,76.4512,426.167,1157.2,88.7147,155.044,1140.38,-125.362,355.886,1222.27,-110.832,222.994,1221.31,98.1596,498.012,887.862,155.421,473.643,701.491,73.5834,473.217,550.486,-6.5205,414.282,303.617,-68.0741,359.065,275.853,125.556,418.39,222.98,-7.36597,110.913,857.804,-56.3425,147.652,673.124,-140.532,149.463,477.684,-218.255,195.457,274.293,-290.969,228.326,261.555,-93.55,214.194,189.194
247,0,76.9692,426.997,1160.27,88.9629,155.999,1142.19,-124.852,356.37,1225.2,-110.004,223.529,1224.02,99.8885,498.152,891.35,152.989,472.412,703.157,78.4122,472.081,547.818,14.8582,414.149,295.724,-44.5748,358.899,263.991,151.662,418.988,223.14,-11.4719,111.876,860.364,-63.1037,147.925,676.148,-149.17,149.341,481.474,-228.991,194.842,278.739,-301.586,227.505,267.753,-107.027,213.873,189.141
248,0,77.7151,427.897,1163.1,89.4294,157.063,1143.92,-124.115,356.978,1227.83,-108.988,224.165,1226.48,100.945,498.331,894.25,149.935,471.342,704.253,82.976,471.138,544.945,36.3976,414.101,288.733,-20.9484,358.96,253.256,177.453,418.991,224.184,-15.2507,112.791,862.835,-69.1186,148.179,678.977,-157.221,149.19,485.141,-239.461,194.196,283.228,-311.987,226.721,274.026,-120.535,213.555,189.107
249,0,78.7008,428.845,1165.63,90.1093,158.229,1145.5,-123.141,357.727,1230.11,-107.793,224.905,1228.63,101.306,498.582,896.469,146.454,470.443,704.803,87.3029,470.389,541.934,57.7639,414.133,282.701,2.38554,359.243,243.748,202.619,418.408,226.124,-18.6215,113.67,865.136,-74.317,148.424,681.517,-164.645,149.016,488.613,-249.644,193.52,287.704,-322.145,225.959,280.329,-134.061,213.241,189.077
250,0,79.9311,429.823,1167.8,90.9935,159.486,1146.9,-121.933,358.63,1232,-106.434,225.753,1230.42,100.983,498.934,897.932,142.764,469.716,704.845,91.4152,469.833,538.846,78.5588,414.235,277.626,24.9545,359.726,235.511,226.783,417.31,228.868,-21.4952,114.53,867.181,-78.629,148.669,683.676,-171.401,148.82,491.818,-259.519,192.816,292.114,-332.026,225.205,286.627,-147.595,212.932,189.027
251,0,81.4027,430.815,1169.58,92.0687,160.823,1148.07,-120.501,359.695,1233.46,-104.93,226.708,1231.77,100.021,499.41,898.586,139.098,469.151,704.425,95.3273,469.461,535.735,98.3364,414.394,273.448,46.2522,360.372,228.536,249.512,415.805,232.21,-23.7794,115.391,868.874,-81.9864,148.921,685.363,-177.449,148.605,494.692,-269.06,192.082,296.416,-341.584,224.443,292.898,-161.132,212.633,188.933
252,0,83.1037,431.808,1170.92,93.3171,162.23,1148.94,-118.863,360.922,1234.44,-103.307,227.77,1232.64,98.5119,500.017,898.407,135.689,468.732,703.596,99.0448,469.259,532.648,116.626,414.588,270.054,65.7635,361.135,222.766,270.338,414.022,235.829,-25.3844,116.274,870.121,-84.3253,149.187,686.49,-182.751,148.37,497.178,-278.233,191.315,300.579,-350.763,223.659,299.133,-174.675,212.345,188.771
253,0,85.0141,432.795,1171.76,94.7162,163.695,1149.47,-117.049,362.307,1234.9,-101.592,228.934,1232.97,96.591,500.748,897.407,132.759,468.436,702.411,102.564,469.208,529.618,132.963,414.794,267.294,82.9936,361.96,218.103,288.782,412.088,239.312,-26.2271,117.196,870.828,-85.5893,149.468,686.976,-187.271,148.114,499.231,-286.998,190.511,304.585,-359.494,222.838,305.338,-188.23,212.076,188.521
254,0,87.1056,433.77,1172.08,96.2397,165.206,1149.62,-115.097,363.839,1234.81,-99.8199,230.192,1232.72,94.4395,501.574,895.637,130.503,468.239,700.924,105.872,469.286,526.669,146.916,414.981,264.998,97.4994,362.792,214.424,304.393,410.111,242.2,-26.2358,118.174,870.912,-85.732,149.764,686.753,-190.972,147.833,500.816,-295.307,189.665,308.435,-367.694,221.969,311.533,-201.806,211.835,188.18
255,0,89.343,434.733,1171.86,97.8575,166.75,1149.34,-113.05,365.499,1234.15,-98.0246,231.537,1231.86,92.2767,502.453,893.188,129.077,468.117,699.187,108.947,469.471,523.814,158.124,415.111,262.995,108.921,363.576,211.586,316.782,408.164,244.045,-25.3537,119.22,870.301,-84.7203,150.072,685.766,-193.82,147.523,501.918,-303.102,188.771,312.145,-375.27,221.045,317.753,-215.406,211.63,187.761
256,0,91.6856,435.683,1171.06,99.5368,168.315,1148.59,-110.96,367.264,1232.9,-96.2438,232.958,1230.38,90.3472,503.338,890.19,128.585,468.049,697.242,111.759,469.74,521.061,166.321,415.15,261.132,117.008,364.261,209.447,325.668,406.289,244.48,-23.5413,120.341,868.945,-82.5369,150.385,683.983,-195.783,147.179,502.534,-310.317,187.822,315.749,-382.119,220.06,324.043,-229.021,211.47,187.301
257,0,94.088,436.622,1169.68,101.243,169.885,1147.35,-108.879,369.105,1231.05,-94.515,234.443,1228.26,88.9008,504.179,886.802,129.069,468.023,695.128,114.272,470.07,518.408,171.363,415.06,259.293,121.642,364.81,207.869,330.908,404.499,243.277,-20.7789,121.537,866.821,-79.1824,150.696,681.394,-196.832,146.794,502.68,-316.878,186.817,319.298,-388.133,219.015,330.457,-242.619,211.358,186.868
258,0,96.5026,437.554,1167.74,102.941,171.447,1145.6,-106.863,370.988,1228.63,-92.8748,235.981,1225.52,88.1663,504.941,883.202,130.508,468.037,692.872,116.447,470.445,515.852,173.236,414.811,257.406,122.844,365.193,206.731,332.52,402.787,240.393,-17.068,122.801,863.934,-74.6766,150.995,678.016,-196.942,146.365,502.389,-322.708,185.754,322.852,-393.202,217.917,337.049,-256.136,211.287,186.555
259,0,98.8812,438.479,1165.26,104.596,172.982,1143.36,-104.963,372.877,1225.65,-91.3573,237.558,1222.18,88.3235,505.609,879.572,132.815,468.099,690.495,118.241,470.853,513.385,172.063,414.387,255.447,120.776,365.396,205.93,330.693,401.144,235.981,-12.433,124.12,860.324,-69.0583,151.272,673.894,-196.092,145.89,501.709,-327.724,184.638,326.483,-397.223,216.78,343.872,-269.466,211.236,186.479
260,0,101.177,439.398,1162.27,106.174,174.476,1140.63,-103.229,374.735,1222.17,-89.9927,239.16,1218.3,89.4758,506.193,876.078,135.844,468.227,688.011,119.609,471.287,510.999,168.087,413.784,253.435,115.728,365.422,205.386,325.768,399.568,230.37,-6.92186,125.473,856.064,-62.3853,151.52,669.104,-194.265,145.366,500.705,-331.842,183.478,330.264,-400.106,215.625,350.964,-282.452,211.169,186.772
261,0,103.346,440.309,1158.82,107.647,175.912,1137.45,-101.702,376.528,1218.25,-88.8061,240.773,1213.92,91.6281,506.727,872.854,139.398,468.449,685.427,120.507,471.745,508.686,161.658,413.018,251.423,108.091,365.286,205.04,318.213,398.068,224.018,-0.606531,126.834,851.26,-54.7316,151.728,663.749,-191.452,144.797,499.452,-334.983,182.29,334.263,-401.78,214.485,358.347,-294.887,211.029,187.57
262,0,105.349,441.21,1155,108.989,177.273,1133.87,-100.415,378.221,1213.97,-87.8165,242.383,1209.14,94.6752,507.27,869.986,143.244,468.798,682.748,120.893,472.233,506.439,153.193,412.126,249.48,98.3282,365.016,204.849,308.569,396.672,217.437,6.41694,128.171,846.044,-46.1849,151.89,657.958,-187.654,144.186,498.035,-337.072,181.093,338.538,-402.199,213.395,366.02,-306.51,210.743,188.995
263,0,107.154,442.095,1150.87,110.178,178.547,1129.97,-99.3924,379.788,1209.42,-87.0361,243.976,1204.04,98.4027,507.89,867.506,147.128,469.307,679.98,120.726,472.757,504.252,143.147,411.159,247.677,86.937,364.652,204.784,297.403,395.416,211.118,14.0296,129.452,840.569,-36.843,152.001,651.881,-182.876,143.542,496.545,-338.043,179.914,343.132,-401.345,212.401,373.952,-317.016,210.227,191.142
264,0,108.736,442.959,1146.54,111.2,179.723,1125.81,-98.6457,381.206,1204.72,-86.4699,245.539,1198.73,102.502,508.656,865.389,150.792,470.008,677.13,119.968,473.327,502.123,131.973,410.18,246.073,74.41,364.236,204.826,285.248,394.338,205.468,22.092,130.643,835.002,-26.8092,152.059,645.682,-177.135,142.876,495.074,-337.842,178.781,348.06,-399.232,211.547,382.082,-326.07,209.397,194.063
265,0,110.075,443.796,1142.09,112.046,180.794,1121.5,-98.1763,382.461,1199.97,-86.1156,247.058,1193.32,106.6,509.624,863.562,153.991,470.922,674.209,118.584,473.954,500.05,120.089,409.254,244.707,61.2025,363.812,204.962,272.566,393.468,200.758,30.4478,131.714,829.509,-16.1887,152.064,639.536,-170.459,142.201,493.711,-336.428,177.723,353.31,-395.906,210.872,390.318,-333.325,208.183,197.759
266,0,111.165,444.602,1137.65,112.714,181.758,1117.13,-97.9751,383.547,1195.29,-85.9642,248.519,1187.93,110.297,510.828,861.917,156.505,472.058,671.238,116.544,474.644,498.035,107.853,408.443,243.594,47.7061,363.418,205.182,259.718,392.823,197.112,38.9299,132.64,824.252,-5.08422,152.019,633.616,-162.885,141.536,492.539,-333.777,176.768,358.842,-391.439,210.409,398.539,-338.441,206.544,202.171
267,0,112.002,445.374,1133.31,113.204,182.616,1112.82,-98.0237,384.464,1190.81,-86.0004,249.909,1182.68,113.209,512.272,860.337,158.155,473.413,668.243,113.821,475.403,496.084,95.5468,407.793,242.726,34.231,363.087,205.477,246.954,392.399,194.514,47.3671,133.401,819.376,6.40645,151.931,628.089,-154.459,140.898,491.628,-329.88,175.943,364.579,-385.927,210.174,406.599,-341.114,204.482,207.185
268,0,112.594,446.112,1129.18,113.527,183.377,1108.68,-98.296,385.219,1186.64,-86.2039,251.215,1177.68,115.015,513.933,858.712,158.804,474.966,665.258,110.396,476.228,494.207,83.3701,407.334,242.075,20.999,362.837,205.84,234.421,392.171,192.84,55.5934,133.989,815.005,18.193,151.811,623.112,-145.238,140.309,491.037,-324.746,175.267,370.416,-379.48,210.167,414.332,-341.092,202.056,212.638
269,0,112.954,446.817,1125.36,113.692,184.052,1104.81,-98.7609,385.826,1182.88,-86.5507,252.425,1173.04,115.484,515.758,856.965,158.364,476.68,662.327,106.255,477.113,492.418,71.4427,407.074,241.607,8.14527,362.677,206.267,222.181,392.102,191.896,63.4567,134.403,811.236,30.1933,151.673,618.822,-135.288,139.79,490.808,-318.399,174.752,376.222,-372.215,210.368,421.558,-338.197,199.383,218.331
270,0,113.099,447.495,1121.95,113.717,184.659,1101.32,-99.3843,386.299,1179.63,-87.0139,253.526,1168.87,114.506,517.677,855.066,156.794,478.509,659.501,101.392,478.046,490.737,59.8147,407.004,241.285,-4.27269,362.61,206.754,210.23,392.144,191.465,70.8283,134.655,808.138,42.333,151.535,615.332,-124.681,139.362,490.964,-310.878,174.406,381.842,-364.246,210.74,428.091,-332.339,196.627,224.045
271,0,113.055,448.154,1119.02,113.619,185.216,1098.3,-100.131,386.658,1176.95,-87.5659,254.507,1165.25,112.091,519.606,853.039,154.093,480.394,656.833,95.8087,479.011,489.19,48.4807,407.097,241.079,-16.2604,362.627,207.302,198.526,392.247,191.34,77.6114,134.762,805.753,54.5444,151.418,612.733,-113.497,139.047,491.511,-302.235,174.225,387.109,-355.678,211.233,433.743,-323.522,193.99,229.559
272,0,112.845,448.803,1116.63,113.418,185.743,1095.81,-100.968,386.919,1174.91,-88.179,255.359,1162.25,108.366,521.463,850.956,150.297,482.273,654.381,89.5158,479.987,487.807,37.3962,407.32,240.967,-27.8698,362.72,207.914,187.008,392.365,191.354,83.7465,134.749,804.102,66.7642,151.346,611.088,-101.818,138.861,492.433,-292.533,174.204,391.847,-346.596,211.79,438.334,-311.84,191.68,234.67
273,0,112.5,449.452,1114.84,113.133,186.261,1093.92,-101.865,387.098,1173.54,-88.827,256.073,1159.94,103.55,523.172,848.931,145.468,484.085,652.201,82.5325,480.951,486.62,26.4932,407.636,240.943,-39.1813,362.88,208.601,175.61,392.461,191.385,89.2152,134.648,803.184,78.931,151.345,610.435,-89.7292,138.821,493.7,-281.842,174.329,395.884,-337.062,212.359,441.694,-297.472,189.883,239.206
274,0,112.046,450.109,1113.69,112.786,186.786,1092.68,-102.794,387.208,1172.84,-89.486,256.643,1158.35,97.9175,524.671,847.097,139.686,485.771,650.345,74.8859,481.881,485.664,15.6948,408.013,241.012,-50.2887,363.102,209.378,164.27,392.51,191.364,94.0398,134.489,802.986,90.9828,151.44,610.785,-77.3175,138.938,495.262,-270.235,174.584,399.058,-327.113,212.896,443.671,-280.662,188.734,243.04
275,0,111.514,450.781,1113.18,112.396,187.333,1092.11,-103.736,387.257,1172.83,-90.1349,257.067,1157.49,91.7658,525.916,845.589,133.042,487.283,648.858,66.6115,482.754,484.974,4.92615,408.427,241.19,-61.285,363.384,210.263,152.939,392.501,191.264,98.2796,134.303,803.487,102.854,151.654,612.125,-64.6673,139.219,497.057,-257.785,174.954,401.225,-316.754,213.375,444.138,-261.699,188.295,246.093
276,0,110.929,451.473,1113.32,111.982,187.911,1092.21,-104.672,387.25,1173.48,-90.7561,257.344,1157.38,85.3755,526.881,844.523,125.634,488.581,647.778,57.7518,483.548,484.581,-5.87709,408.862,241.5,-72.2532,363.73,211.281,141.576,392.432,191.091,102.024,134.118,804.658,114.475,152.008,614.418,-51.8605,139.665,499.008,-244.564,175.422,402.269,-305.962,213.791,442.994,-240.899,188.541,248.337
277,0,110.318,452.183,1114.1,111.561,188.524,1092.98,-105.59,387.188,1174.74,-91.335,257.478,1157.99,78.981,527.557,843.983,117.557,489.638,647.129,48.3562,484.246,484.515,-16.7641,409.312,241.971,-83.2596,364.146,212.459,130.153,392.311,190.867,105.384,133.955,806.47,125.768,152.516,617.606,-38.9743,140.275,501.034,-230.63,175.974,402.103,-294.692,214.164,440.173,-218.576,189.367,249.788
278,0,109.706,452.908,1115.48,111.152,189.169,1094.39,-106.481,387.069,1176.57,-91.8604,257.474,1159.3,72.7507,527.95,844.009,108.905,490.437,646.925,38.48,484.834,484.796,-27.7665,409.778,242.63,-94.3507,364.636,213.823,118.648,392.15,190.621,108.478,133.829,808.891,136.652,153.188,621.611,-26.0808,141.038,503.049,-216.034,176.601,400.675,-282.872,214.527,435.648,-195.028,190.603,250.497
279,0,109.114,453.639,1117.44,110.77,189.838,1096.41,-107.337,386.891,1178.9,-92.3235,257.344,1161.26,66.7789,528.073,844.599,99.7684,490.975,647.167,28.1834,485.299,485.442,-38.8986,410.262,243.504,-105.553,365.201,215.403,107.046,391.964,190.379,111.426,133.751,811.889,147.039,154.023,626.339,-13.2452,141.942,504.966,-200.812,177.297,397.973,-270.417,214.93,429.432,-170.519,192.038,250.539
280,0,108.563,454.364,1119.93,110.43,190.52,1098.98,-108.151,386.649,1181.68,-92.7175,257.098,1163.82,61.0895,527.947,845.712,90.2336,491.257,647.846,17.5309,485.634,486.46,-50.1588,410.763,244.615,-116.874,365.835,217.226,95.3348,391.766,190.159,114.333,133.72,815.428,156.837,155.013,631.68,-0.526225,142.968,506.705,-184.982,178.058,394.024,-257.229,215.426,421.587,-145.273,193.461,250
281,0,108.072,455.069,1122.9,110.148,191.198,1102.06,-108.917,386.342,1184.83,-93.037,256.751,1166.91,55.6487,527.595,847.279,80.3832,491.295,648.943,6.58994,485.831,487.85,-61.5325,411.279,245.981,-128.306,366.525,219.318,83.5067,391.563,189.969,117.283,133.735,819.471,165.954,156.141,637.513,12.0245,144.095,508.193,-168.552,178.886,388.89,-243.211,216.068,412.216,-119.467,194.686,248.968
282,0,107.658,455.738,1126.29,109.938,191.856,1105.57,-109.628,385.967,1188.28,-93.277,256.321,1170.45,50.3851,527.038,849.214,70.2972,491.107,650.429,-4.57003,485.89,489.605,-72.9957,411.796,247.612,-139.83,367.246,221.701,71.5561,391.359,189.811,120.33,133.786,823.97,174.3,157.382,643.709,24.362,145.299,509.373,-151.513,179.782,382.675,-228.267,216.895,401.473,-93.2342,195.582,247.523
283,0,107.337,456.355,1130.04,109.814,192.474,1109.48,-110.273,385.525,1191.96,-93.4326,255.824,1174.38,45.2112,526.298,851.425,60.0541,490.714,652.271,-15.8785,485.807,491.71,-84.5184,412.296,249.519,-151.42,367.965,224.392,59.4794,391.151,189.679,123.499,133.863,828.872,181.791,158.704,650.134,36.4476,146.553,510.203,-133.853,180.752,375.513,-212.315,217.936,389.552,-66.6728,196.089,245.737
284,0,107.125,456.907,1134.1,109.79,193.038,1113.7,-110.84,385.02,1195.81,-93.498,255.277,1178.61,40.0445,525.392,853.829,49.7312,490.139,654.428,-27.2648,485.586,494.143,-96.0679,412.757,251.704,-163.043,368.645,227.405,47.2744,390.93,189.563,126.781,133.952,834.114,188.352,160.068,656.654,48.2482,147.831,510.658,-115.556,181.8,367.568,-195.294,219.198,376.684,-39.8519,196.22,243.672
285,0,107.035,457.383,1138.4,109.88,193.532,1118.17,-111.317,384.458,1199.76,-93.4667,254.695,1183.05,34.8235,524.339,856.351,39.4053,489.404,656.858,-38.659,485.229,496.879,-107.612,413.155,254.17,-174.669,369.245,230.745,34.9397,390.684,189.454,130.136,134.038,839.623,193.925,161.434,663.135,59.7354,149.107,510.734,-96.6143,182.931,359.03,-177.171,220.676,363.131,-12.8251,196.054,241.39
286,0,107.079,457.774,1142.89,110.096,193.949,1122.83,-111.686,383.846,1203.77,-93.3309,254.092,1187.63,29.5184,523.155,858.932,29.1532,488.532,659.515,-49.992,484.741,499.886,-119.121,413.47,256.912,-186.265,369.729,234.413,22.4747,390.4,189.346,133.504,134.109,845.315,198.466,162.76,669.455,70.8845,150.358,510.446,-77.0342,184.147,350.105,-157.949,222.347,349.173,14.358,195.716,238.958
287,0,107.267,458.079,1147.5,110.45,194.283,1127.62,-111.93,383.192,1207.77,-93.0819,253.479,1192.27,24.1351,521.858,861.529,19.052,487.544,662.354,-61.196,484.132,503.127,-130.568,413.685,259.927,-197.803,370.066,238.401,9.87902,390.065,189.234,136.805,134.148,851.098,201.958,164.007,675.498,81.6734,151.562,509.825,-56.8443,185.451,341.008,-137.668,224.181,335.1,41.6407,195.352,236.456
288,0,107.607,458.3,1152.19,110.95,194.533,1132.47,-112.032,382.505,1211.73,-92.71,252.864,1196.88,18.7133,520.468,864.11,9.17919,486.46,665.325,-72.2046,483.41,506.562,-141.93,413.796,263.204,-209.258,370.236,242.695,-2.84722,389.67,189.116,139.954,134.144,856.873,204.402,165.137,681.163,92.0818,152.703,508.914,-36.1027,186.84,331.957,-116.414,226.142,321.198,68.9496,195.107,233.986
289,0,108.108,458.444,1156.88,111.605,194.706,1137.32,-111.974,381.794,1215.61,-92.2054,252.25,1201.4,13.3194,519.007,866.651,-0.386676,485.298,668.379,-82.9524,482.591,510.149,-153.188,413.807,266.728,-220.607,370.232,247.273,-15.7026,389.21,188.994,142.866,134.083,862.537,205.831,166.123,686.366,102.09,153.767,507.767,-14.9021,188.31,323.161,-94.3192,228.193,307.734,96.1872,195.1,231.667
290,0,108.772,458.52,1161.51,112.421,194.81,1142.11,-111.739,381.066,1219.36,-91.5586,251.639,1205.76,8.03814,517.497,869.132,-9.56598,484.078,671.464,-93.3749,481.691,513.841,-164.325,413.729,270.48,-231.832,370.06,252.109,-28.6839,388.683,188.872,145.466,133.952,867.985,206.3,166.943,691.038,111.679,154.749,506.444,6.62698,189.855,314.808,-71.5602,230.301,294.949,123.228,195.414,229.636
291,0,109.601,458.542,1166.02,113.4,194.856,1146.77,-111.313,380.328,1222.97,-90.7611,251.027,1209.89,2.96238,515.964,871.534,-18.2778,482.818,674.529,-103.409,480.729,517.588,-175.325,413.581,274.432,-242.917,369.74,257.17,-41.785,388.095,188.756,147.699,133.744,873.114,205.894,167.587,695.131,120.828,155.646,505,28.3156,191.464,307.061,-48.3583,232.437,283.041,149.917,196.085,228.034
292,0,110.595,458.522,1170.34,114.542,194.858,1151.23,-110.684,379.582,1226.38,-89.8064,250.408,1213.73,-1.81509,514.43,873.834,-26.4403,481.539,677.516,-112.99,479.728,521.34,-186.169,413.384,278.55,-253.846,369.303,262.423,-54.997,387.456,188.65,149.531,133.449,877.826,204.721,168.053,698.611,129.515,156.462,503.489,49.958,193.126,300.046,-24.9745,234.576,272.163,176.072,197.108,226.989
293,0,111.749,458.476,1174.41,115.846,194.828,1155.43,-109.844,378.831,1229.56,-88.6908,249.772,1217.23,-6.20818,512.917,876.007,-33.971,480.261,680.367,-122.059,478.715,525.043,-196.837,413.157,282.793,-264.604,368.787,267.83,-68.3069,386.78,188.557,150.956,133.065,882.032,202.912,168.354,701.465,137.717,157.204,501.954,71.3163,194.825,293.846,-1.70486,236.698,262.416,201.484,198.449,226.602
294,0,113.056,458.415,1178.16,117.303,194.777,1159.29,-108.792,378.072,1232.47,-87.4136,249.11,1220.33,-10.1412,511.445,878.02,-40.7886,479.008,683.022,-130.553,477.715,528.642,-207.305,412.918,287.116,-275.17,368.233,273.356,-81.699,386.083,188.481,151.993,132.596,885.651,200.614,168.508,703.693,145.407,157.884,500.426,92.1264,196.547,288.496,21.1272,238.784,253.844,225.929,200.052,226.917
295,0,114.509,458.346,1181.52,118.908,194.714,1162.76,-107.53,377.305,1235.08,-85.979,248.408,1223,-13.5501,510.028,879.838,-46.8138,477.803,685.415,-138.415,476.758,532.081,-217.543,412.678,291.465,-285.522,367.684,278.967,-95.155,385.382,188.421,152.691,132.05,888.619,197.989,168.546,705.309,152.561,158.518,498.922,112.106,198.276,283.985,43.1786,240.817,246.443,249.165,201.856,227.914
296,0,116.094,458.274,1184.42,120.646,194.643,1165.77,-106.068,376.525,1237.33,-84.3951,247.657,1225.2,-16.3817,508.679,881.42,-51.9724,476.674,687.48,-145.589,475.873,535.307,-227.516,412.443,295.787,-295.626,367.178,284.634,-108.656,384.69,188.372,153.117,131.446,890.885,195.205,168.5,706.336,159.148,159.124,497.445,130.966,199.997,280.257,64.0962,242.779,240.159,270.945,203.81,229.494
297,0,117.798,458.197,1186.8,122.506,194.562,1168.26,-104.419,375.728,1239.17,-82.6757,246.845,1226.89,-18.5922,507.407,882.72,-56.1974,475.649,689.15,-152.024,475.088,538.266,-237.188,412.219,300.03,-305.443,366.75,290.333,-122.182,384.02,188.327,153.357,130.809,892.419,192.43,168.41,706.806,165.142,159.719,495.983,148.417,201.697,277.215,83.5278,244.649,234.903,291.019,205.874,231.479
298,0,119.604,458.108,1188.6,124.469,194.465,1170.16,-102.608,374.91,1240.55,-80.8393,245.966,1228.04,-20.1447,506.22,883.686,-59.4319,474.757,690.357,-157.673,474.434,540.91,-246.514,412.01,304.143,-314.921,366.427,296.048,-135.718,383.376,188.277,153.506,130.169,893.207,189.826,168.314,706.756,170.515,160.322,494.516,164.182,203.366,274.736,101.133,246.409,230.558,309.138,208.025,233.621
299,0,121.494,457.994,1189.78,126.518,194.339,1171.44,-100.66,374.067,1241.42,-78.9096,245.015,1228.65,-21.0084,505.124,884.263,-61.6316,474.028,691.039,-162.495,473.936,543.197,-255.449,411.825,308.085,-323.998,366.232,301.772,-149.248,382.761,188.207,153.663,129.563,893.256,187.54,168.248,706.226,175.243,160.949,493.013,178.01,204.996,272.678,116.597,248.04,226.993,325.063,210.253,235.628
300,0,123.447,457.836,1190.3,128.632,194.167,1172.07,-98.6116,373.197,1241.72,-76.9151,243.992,1228.69,-21.1578,504.128,884.394,-62.7675,473.491,691.136,-166.454,473.62,545.089,-263.947,411.682,311.827,-332.603,366.18,307.506,-162.764,382.17,188.106,153.918,129.024,892.596,185.699,168.241,705.255,179.306,161.612,491.44,189.682,206.582,270.893,129.643,249.523,224.07,338.567,212.559,237.189
301,0,125.441,457.614,1190.14,130.787,193.928,1172.01,-96.5001,372.301,1241.41,-74.8883,242.901,1228.16,-20.5733,503.239,884.019,-62.8273,473.17,690.6,-169.522,473.508,546.562,-271.961,411.608,315.355,-340.653,366.287,313.264,-176.255,381.597,187.966,154.353,128.582,891.274,184.405,168.312,703.883,182.687,162.321,489.762,199.026,208.119,269.245,140.044,250.847,221.663,349.452,214.94,238.016
302,0,127.45,457.301,1189.27,132.958,193.599,1171.26,-94.3685,371.38,1240.44,-72.8647,241.751,1227.07,-19.2425,502.469,883.081,-61.8161,473.089,689.393,-171.675,473.621,547.598,-279.442,411.64,318.671,-348.064,366.564,319.07,-189.712,381.034,187.784,155.028,128.256,889.357,183.726,168.47,702.15,185.378,163.079,487.949,205.92,209.606,267.614,147.641,252.004,219.658,357.554,217.388,237.879
303,0,129.45,456.874,1187.73,135.119,193.155,1169.83,-92.2618,370.44,1238.8,-70.8821,240.556,1225.44,-17.1626,501.83,881.532,-59.7568,473.264,687.494,-172.896,473.976,548.194,-286.344,411.825,321.798,-354.744,367.024,324.958,-203.121,380.478,187.574,155.98,128.053,886.925,183.695,168.711,700.091,187.376,163.881,485.976,210.306,211.038,265.91,152.348,252.994,217.962,362.765,219.883,236.641
304,0,131.411,456.306,1185.52,137.24,192.573,1167.74,-90.2258,369.488,1236.47,-68.9791,239.331,1223.28,-14.3421,501.332,879.336,-56.6881,473.703,684.902,-173.174,474.584,548.359,-292.622,412.216,324.78,-360.607,367.68,330.969,-216.452,379.929,187.365,157.217,127.96,884.071,184.308,169.017,697.742,188.687,164.719,483.832,212.191,212.41,264.077,154.162,253.82,216.506,365.05,222.388,234.278
