Trajectories
100
,,Subj:LASI,,,Subj:RASI,,,Subj:LPSI,,,Subj:RPSI,,,Subj:LTHI,,,Subj:LKNE,,,Subj:LTIB,,,Subj:LANK,,,Subj:LHEE,,,Subj:LTOE,,,Subj:RTHI,,,Subj:RKNE,,,Subj:RTIB,,,Subj:RANK,,,Subj:RHEE,,,Subj:RTOE,,,
Frame,Sub Frame,X,Y,Z,X,Y,Z,X,Y,Z,X,Y,Z,X,Y,Z,X,Y,Z,X,Y,Z,X,Y,Z,X,Y,Z,X,Y,Z,X,Y,Z,X,Y,Z,X,Y,Z,X,Y,Z,X,Y,Z,X,Y,Z
,,mm,mm,mm,mm,mm,mm,mm,mm,mm,mm,mm,mm,mm,mm,mm,mm,mm,mm,mm,mm,mm,mm,mm,mm,mm,mm,mm,mm,mm,mm,mm,mm,mm,mm,mm,mm,mm,mm,mm,mm,mm,mm,mm,mm,mm,mm,mm,mm
1,0,115.595,385.089,1156.94,154.741,109.852,1136.66,-80.7099,264.113,1208.03,-59.1691,160.121,1202.41,113.817,466.726,881.489,175.693,458.65,695.517,76.2009,463.664,561.989,-41.9374,413.227,329.881,-116.841,357.392,306.041,65.0337,423.328,225.66,84.9229,70.3201,848.362,40.6601,107.125,660.797,1.50756,116.967,452.136,-8.46103,179.472,241.591,-77.1514,222.783,200.393,140.257,193.308,194.713
2,0,114.217,384.672,1157.96,153.747,109.889,1136.58,-82.0915,263.4,1208.39,-60.2163,159.452,1202.62,114.972,466.158,882.992,176.424,457.474,696.588,80.0753,463.056,560.46,-31.2509,413.868,324.55,-105.49,358.107,297.623,78.8911,424.854,225.078,82.9105,70.0497,848.684,39.0216,107.345,660.739,-0.798327,117.086,452.177,-11.3209,179.556,241.664,-80.0392,222.773,200.541,137.36,193.17,194.627
3,0,112.869,384.304,1158.91,152.754,109.944,1136.48,-83.4403,262.746,1208.72,-61.2538,158.841,1202.8,115.951,465.628,884.38,177.019,456.327,697.567,83.8592,462.457,558.939,-20.5804,414.454,319.471,-94.11,358.803,289.588,92.6103,426.188,224.598,80.9503,69.8388,848.962,37.3627,107.574,660.676,-3.11677,117.212,452.215,-14.1935,179.64,241.735,-82.9422,222.766,200.682,134.447,193.039,194.542
4,0,111.549,383.983,1159.79,151.762,110.016,1136.35,-84.7563,262.152,1209.01,-62.2817,158.287,1202.95,116.756,465.136,885.655,177.477,455.209,698.454,87.5524,461.869,557.424,-9.92628,414.983,314.644,-82.7011,359.478,281.937,106.191,427.33,224.22,79.0423,69.6875,849.194,35.6835,107.811,660.606,-5.44777,117.342,452.249,-17.0788,179.725,241.805,-85.8605,222.764,200.816,131.518,192.916,194.459
5,0,110.259,383.71,1160.6,150.771,110.107,1136.21,-86.0394,261.618,1209.28,-63.2999,157.792,1203.07,117.385,464.682,886.816,177.799,454.12,699.249,91.1547,461.292,555.917,0.710114,415.455,310.069,-71.2648,360.134,274.67,119.632,428.28,223.943,77.1863,69.5956,849.382,33.9839,108.057,660.531,-7.79131,117.478,452.279,-19.9768,179.811,241.872,-88.7941,222.765,200.943,128.573,192.8,194.377
6,0,108.998,383.484,1161.34,149.781,110.216,1136.05,-87.2896,261.144,1209.51,-64.3084,157.354,1203.17,117.841,464.265,887.863,177.985,453.061,699.952,94.6656,460.724,554.417,11.3262,415.871,305.747,-59.8047,360.768,267.788,132.931,429.039,223.766,75.3824,69.5627,849.526,32.264,108.312,660.45,-10.1473,117.618,452.305,-22.8876,179.896,241.937,-91.7431,222.77,201.063,125.613,192.69,194.297
7,0,107.767,383.306,1162.02,148.792,110.342,1135.86,-88.5067,260.729,1209.71,-65.307,156.974,1203.25,118.122,463.887,888.797,178.035,452.032,700.564,98.0841,460.166,552.924,21.9172,416.229,301.676,-48.3268,361.38,261.293,146.085,429.607,223.688,73.6303,69.5884,849.624,30.5239,108.574,660.364,-12.5158,117.763,452.326,-25.811,179.982,242,-94.7074,222.779,201.176,122.637,192.588,194.219
8,0,106.566,383.176,1162.62,147.805,110.486,1135.65,-89.6906,260.375,1209.87,-66.2957,156.651,1203.29,118.232,463.548,889.617,177.952,451.033,701.083,101.409,459.617,551.439,32.4758,416.528,297.858,-36.8406,361.966,255.187,159.086,429.984,223.707,71.9297,69.6715,849.677,28.7634,108.844,660.272,-14.8967,117.913,452.344,-28.7472,180.068,242.061,-97.6873,222.79,201.283,119.645,192.493,194.142
9,0,105.395,383.092,1163.15,146.819,110.647,1135.43,-90.8409,260.079,1210.01,-67.2741,156.387,1203.31,118.171,463.246,890.325,177.736,450.063,701.512,104.637,459.076,549.962,42.991,416.768,294.292,-25.36,362.524,249.471,171.928,430.173,223.817,70.2799,69.8108,849.684,26.9827,109.121,660.174,-17.2898,118.066,452.357,-31.6961,180.153,242.119,-100.683,222.804,201.382,116.637,192.403,194.066
10,0,104.256,383.055,1163.61,145.834,110.826,1135.18,-91.9574,259.844,1210.11,-68.242,156.18,1203.31,117.944,462.983,890.919,177.389,449.124,701.849,107.766,458.542,548.492,53.4483,416.945,290.976,-13.9033,363.05,244.149,184.596,430.175,224.015,68.68,70.0043,849.645,25.1818,109.404,660.07,-19.695,118.223,452.366,-34.6578,180.236,242.174,-103.695,222.82,201.475,113.612,192.32,193.991
11,0,103.149,383.064,1164,144.851,111.021,1134.91,-93.0394,259.668,1210.19,-69.199,156.031,1203.28,117.554,462.758,891.402,176.915,448.217,702.095,110.791,458.015,547.031,63.8287,417.06,287.909,-2.49424,363.537,239.222,197.075,429.992,224.293,67.1286,70.2496,849.56,23.3608,109.693,659.959,-22.1122,118.381,452.369,-37.6324,180.318,242.225,-106.723,222.838,201.56,110.571,192.243,193.918
12,0,102.076,383.118,1164.32,143.871,111.234,1134.62,-94.0863,259.552,1210.23,-70.1444,155.939,1203.22,117.007,462.572,891.775,176.317,447.341,702.25,113.707,457.493,545.579,74.1087,417.109,285.088,8.83809,363.979,234.69,209.346,429.63,224.643,65.6239,70.5437,849.43,21.5199,109.985,659.842,-24.5412,118.54,452.367,-40.6198,180.396,242.273,-109.767,222.856,201.639,107.512,192.17,193.845
13,0,101.039,383.217,1164.57,142.894,111.462,1134.32,-95.0973,259.496,1210.24,-71.0777,155.905,1203.14,116.31,462.425,892.038,175.599,446.498,702.316,116.508,456.974,544.136,84.2604,417.09,282.509,20.0593,364.369,230.554,221.383,429.092,225.056,64.1636,70.8829,849.254,19.6592,110.28,659.718,-26.9818,118.699,452.358,-43.6202,180.471,242.316,-112.829,222.873,201.712,104.437,192.1,193.774
14,0,100.038,383.359,1164.75,141.92,111.706,1133.99,-96.0714,259.499,1210.21,-71.998,155.929,1203.03,115.47,462.316,892.194,174.766,445.69,702.292,119.187,456.457,542.703,94.2512,417.002,280.166,31.1296,364.7,226.81,233.16,428.387,225.519,62.7447,71.263,849.033,17.779,110.576,659.587,-29.4338,118.856,452.343,-46.6336,180.54,242.353,-115.908,222.889,201.777,101.343,192.034,193.703
15,0,99.0775,383.543,1164.87,140.95,111.965,1133.64,-97.0076,259.562,1210.16,-72.9044,156.01,1202.89,114.497,462.246,892.245,173.823,444.916,702.18,121.735,455.941,541.279,104.044,416.843,278.052,42.0046,364.962,223.451,244.642,427.52,226.019,61.3638,71.6794,848.768,15.8796,110.871,659.448,-31.8971,119.01,452.32,-49.6601,180.602,242.385,-119.004,222.901,201.837,98.231,191.968,193.633
16,0,98.1587,383.767,1164.92,139.986,112.239,1133.27,-97.9045,259.684,1210.08,-73.7957,156.148,1202.73,113.403,462.214,892.195,172.777,444.178,701.982,124.143,455.424,539.864,113.599,416.611,276.156,52.6357,365.15,220.47,255.794,426.504,226.543,60.0168,72.1269,848.46,13.9616,111.165,659.301,-34.3715,119.159,452.289,-52.6998,180.657,242.411,-122.119,222.909,201.89,95.1006,191.903,193.564
17,0,97.2848,384.03,1164.9,139.027,112.526,1132.88,-98.7608,259.866,1209.97,-74.6706,156.344,1202.55,112.2,462.22,892.047,171.634,443.478,701.698,126.401,454.907,538.459,122.873,416.307,274.467,62.9707,365.254,217.851,266.575,425.349,227.075,58.699,72.6004,848.112,12.0254,111.455,659.146,-36.8567,119.303,452.25,-55.7529,180.702,242.429,-125.251,222.911,201.936,91.9512,191.837,193.496
18,0,96.4589,384.331,1164.82,138.076,112.827,1132.47,-99.5749,260.107,1209.83,-75.5279,156.597,1202.34,110.902,462.264,891.804,170.402,442.818,701.331,128.499,454.387,537.064,131.819,415.93,272.97,72.955,365.269,215.579,276.943,424.068,227.598,57.4057,73.0941,847.725,10.0719,111.741,658.982,-39.3527,119.44,452.201,-58.8195,180.738,242.439,-128.402,222.907,201.976,88.7828,191.768,193.428
19,0,95.6843,384.666,1164.68,137.134,113.14,1132.04,-100.345,260.407,1209.67,-76.3658,156.907,1202.11,109.524,462.344,891.473,169.086,442.198,700.883,130.425,453.866,535.679,140.39,415.483,271.651,82.5328,365.189,213.632,286.853,422.678,228.096,56.1316,73.6025,847.304,8.10197,112.022,658.808,-41.8591,119.569,452.143,-61.8996,180.762,242.441,-131.571,222.893,202.009,85.595,191.695,193.36
20,0,94.9645,385.033,1164.48,136.201,113.464,1131.59,-101.07,260.767,1209.48,-77.1827,157.273,1201.86,108.083,462.46,891.058,167.696,441.621,700.357,132.168,453.344,534.302,148.539,414.967,270.491,91.6478,365.012,211.985,296.258,421.194,228.552,54.8714,74.1204,846.849,6.11693,112.296,658.625,-44.3757,119.69,452.075,-64.9935,180.774,242.435,-134.758,222.87,202.036,82.3878,191.616,193.293
21,0,94.3034,385.431,1164.23,135.281,113.799,1131.13,-101.747,261.185,1209.26,-77.9769,157.696,1201.59,106.597,462.61,890.565,166.239,441.088,699.755,133.719,452.821,532.934,156.219,414.388,269.47,100.245,364.737,210.609,305.112,419.636,228.95,53.6198,74.6426,846.367,4.11821,112.564,658.431,-46.9023,119.802,451.997,-68.1012,180.775,242.419,-137.964,222.837,202.057,79.1612,191.531,193.226
22,0,93.7046,385.856,1163.92,134.373,114.144,1130.65,-102.375,261.662,1209.02,-78.7463,158.176,1201.3,105.083,462.793,890.001,164.722,440.601,699.082,135.066,452.3,531.574,163.384,413.749,268.568,108.272,364.365,209.472,313.369,418.024,229.275,52.3718,75.1646,845.859,2.10762,112.826,658.227,-49.4383,119.907,451.909,-71.2227,180.762,242.394,-141.187,222.792,202.07,75.9155,191.438,193.16
23,0,93.1722,386.307,1163.56,133.48,114.499,1130.16,-102.952,262.197,1208.76,-79.4889,158.712,1200.99,103.56,463.008,889.373,163.154,440.161,698.34,136.2,451.782,530.223,169.994,413.058,267.763,115.678,363.9,208.54,320.988,416.377,229.513,51.1229,75.6824,845.331,0.087301,113.082,658.013,-51.9832,120.004,451.81,-74.3582,180.737,242.36,-144.428,222.736,202.077,72.6509,191.337,193.093
24,0,92.7098,386.78,1163.16,132.605,114.862,1129.65,-103.475,262.791,1208.48,-80.2026,159.303,1200.66,102.046,463.252,888.688,161.54,439.77,697.535,137.113,451.271,528.878,176.011,412.322,267.034,122.422,363.348,207.777,327.927,414.719,229.65,49.869,76.1929,844.786,-1.94023,113.333,657.787,-54.5364,120.096,451.702,-77.5076,180.701,242.316,-147.686,222.667,202.078,69.3678,191.226,193.026
25,0,92.3214,387.273,1162.71,131.748,115.234,1129.13,-103.943,263.443,1208.18,-80.8852,159.95,1200.32,100.559,463.523,887.955,159.889,439.429,696.671,137.798,450.77,527.541,181.403,411.55,266.359,128.464,362.718,207.148,334.154,413.071,229.677,48.6071,76.6936,844.228,-3.97201,113.581,657.552,-57.097,120.184,451.584,-80.6709,180.654,242.263,-150.961,222.587,202.071,66.0668,191.107,192.958
26,0,92.0107,387.783,1162.23,130.912,115.614,1128.6,-104.355,264.152,1207.87,-81.5346,160.652,1199.97,99.1179,463.82,887.181,158.207,439.139,695.754,138.249,450.284,526.212,186.145,410.752,265.718,133.774,362.023,206.616,339.641,411.454,229.584,47.3346,77.1831,843.663,-6.00464,113.829,657.305,-59.6638,120.27,451.458,-83.8479,180.598,242.203,-154.252,222.497,202.059,62.7484,190.979,192.889
27,0,91.7811,388.308,1161.72,130.099,116.001,1128.07,-104.708,264.918,1207.54,-82.1485,161.408,1199.61,97.7386,464.139,886.375,156.499,438.901,694.789,138.464,449.817,524.891,190.217,409.938,265.09,138.331,361.274,206.149,344.369,409.89,229.365,46.0504,77.6608,843.094,-8.03425,114.078,657.049,-62.2352,120.358,451.326,-87.0385,180.534,242.135,-157.559,222.398,202.041,59.4134,190.842,192.819
28,0,91.6358,388.845,1161.18,129.311,116.395,1127.53,-105,265.741,1207.21,-82.7247,162.219,1199.24,96.4369,464.478,885.545,154.772,438.716,693.783,138.44,449.374,523.578,193.61,409.118,264.458,142.122,360.486,205.716,348.325,408.398,229.017,44.754,78.1271,842.524,-10.0564,114.333,656.783,-64.8096,120.451,451.188,-90.2422,180.466,242.061,-160.879,222.292,202.019,56.0626,190.697,192.747
29,0,91.5777,389.392,1160.63,128.55,116.797,1126.98,-105.231,266.62,1206.86,-83.261,163.082,1198.86,95.227,464.836,884.7,153.031,438.584,692.741,138.178,448.961,522.274,196.322,408.303,263.808,145.143,359.675,205.29,351.509,406.998,228.538,43.4464,78.583,841.958,-12.0663,114.597,656.508,-67.3847,120.554,451.046,-93.4585,180.396,241.983,-164.214,222.181,201.994,52.6968,190.547,192.672
30,0,91.6094,389.948,1160.06,127.819,117.207,1126.44,-105.399,267.554,1206.52,-83.7553,163.999,1198.47,94.1213,465.209,883.848,151.279,438.506,691.671,137.682,448.583,520.982,198.359,407.504,263.126,147.403,358.857,204.848,353.93,405.706,227.93,42.1293,79.0306,841.4,-14.0584,114.874,656.226,-69.9579,120.67,450.902,-96.6868,180.328,241.903,-167.561,222.069,201.969,49.3169,190.391,192.594
31,0,91.7329,390.509,1159.48,127.121,117.624,1125.91,-105.503,268.543,1206.17,-84.2055,164.968,1198.09,93.1303,465.595,882.998,149.52,438.482,690.581,136.957,448.246,519.703,199.735,406.731,262.404,148.918,358.047,204.373,355.607,404.536,227.196,40.8056,79.4727,840.853,-16.0268,115.169,655.937,-72.5259,120.804,450.759,-99.9262,180.265,241.823,-170.919,221.96,201.945,45.9235,190.231,192.512
32,0,91.9499,391.076,1158.9,126.456,118.05,1125.38,-105.543,269.586,1205.82,-84.6097,165.988,1197.71,92.2624,465.991,882.156,147.758,438.511,689.476,136.01,447.954,518.439,200.475,405.993,261.635,149.716,357.259,203.852,356.571,403.499,226.341,39.4795,79.9123,840.32,-17.965,115.484,655.644,-75.0852,120.961,450.62,-103.176,180.211,241.747,-174.288,221.858,201.926,42.5177,190.07,192.428
33,0,92.2613,391.647,1158.32,125.827,118.486,1124.86,-105.517,270.681,1205.47,-84.966,167.059,1197.33,91.5238,466.396,881.331,145.994,438.593,688.365,134.851,447.713,517.193,200.61,405.298,260.816,149.834,356.508,203.28,356.86,402.603,225.375,38.1555,80.3533,839.804,-19.866,115.826,655.348,-77.6316,121.146,450.488,-106.433,180.17,241.678,-177.665,221.768,201.917,39.1001,189.91,192.339
34,0,92.6677,392.221,1157.76,125.237,118.932,1124.36,-105.425,271.829,1205.13,-85.2728,168.179,1196.95,90.9184,466.808,880.53,144.232,438.728,687.254,133.491,447.528,515.968,200.176,404.653,259.947,149.316,355.803,202.655,356.522,401.854,224.307,36.8395,80.7996,839.309,-21.7223,116.198,655.051,-80.1601,121.362,450.366,-109.698,180.146,241.62,-181.05,221.694,201.921,35.6716,189.752,192.246
35,0,93.169,392.799,1157.21,124.688,119.389,1123.88,-105.268,273.028,1204.81,-85.5285,169.349,1196.59,90.4476,467.225,879.758,142.472,438.913,686.152,131.943,447.403,514.768,199.217,404.064,259.032,148.214,355.156,201.981,355.614,401.252,223.148,35.5376,81.2554,838.838,-23.5261,116.604,654.756,-82.6656,121.614,450.257,-112.968,180.143,241.577,-184.44,221.642,201.946,32.2329,189.598,192.149
36,0,93.7644,393.379,1156.68,124.181,119.859,1123.42,-105.045,274.276,1204.49,-85.7318,170.565,1196.24,90.1108,467.646,879.022,140.717,439.148,685.066,130.221,447.34,513.597,197.782,403.534,258.075,146.587,354.572,201.267,354.198,400.797,221.912,34.2569,81.7248,838.394,-25.2691,117.048,654.465,-85.1422,121.905,450.166,-116.24,180.165,241.554,-187.834,221.616,201.996,28.7848,189.45,192.049
37,0,94.4525,393.964,1156.19,123.72,120.344,1122.99,-104.758,275.573,1204.19,-85.8814,171.828,1195.9,89.905,468.07,878.326,138.965,439.432,684.002,128.343,447.344,512.459,195.923,403.066,257.086,144.495,354.056,200.524,352.338,400.482,220.612,33.0045,82.2118,837.979,-26.9429,117.534,654.181,-87.5834,122.239,450.095,-119.511,180.215,241.557,-191.229,221.622,202.079,25.3282,189.31,191.946
38,0,95.2314,394.553,1155.72,123.304,120.844,1122.59,-104.407,276.917,1203.91,-85.9765,173.137,1195.58,89.8251,468.496,877.675,137.22,439.761,682.967,126.323,447.414,511.357,193.693,402.661,256.074,142.003,353.61,199.767,350.103,400.301,219.263,31.788,82.7204,837.598,-28.5387,118.063,653.907,-89.9823,122.618,450.05,-122.779,180.296,241.592,-194.623,221.662,202.203,21.864,189.179,191.84
39,0,96.0984,395.149,1155.29,122.938,121.363,1122.23,-103.993,278.306,1203.64,-86.0163,174.489,1195.27,89.8642,468.924,877.072,135.48,440.135,681.968,124.179,447.553,510.297,191.146,402.318,255.05,139.175,353.234,199.011,347.56,400.242,217.88,30.6153,83.2538,837.252,-30.0477,118.639,653.646,-92.3318,123.044,450.034,-126.039,180.409,241.663,-198.013,221.741,202.377,18.3931,189.059,191.732
40,0,97.0503,395.753,1154.9,122.621,121.902,1121.91,-103.518,279.74,1203.4,-86.0002,175.884,1194.99,90.0136,469.355,876.521,133.748,440.551,681.009,121.93,447.759,509.282,188.336,402.035,254.027,136.076,352.925,198.273,344.774,400.292,216.48,29.4942,83.8152,836.945,-31.4611,119.262,653.402,-94.6241,123.516,450.052,-129.288,180.555,241.777,-201.396,221.86,202.607,14.9168,188.951,191.622
41,0,98.0834,396.368,1154.55,122.356,122.463,1121.64,-102.984,281.216,1203.19,-85.9279,177.32,1194.73,90.2629,469.789,876.022,132.022,441.007,680.096,119.591,448.032,508.315,185.315,401.81,253.016,132.765,352.68,197.568,341.806,400.435,215.077,28.4323,84.4069,836.679,-32.7704,119.933,653.177,-96.8515,124.034,450.105,-132.521,180.734,241.94,-204.77,222.021,202.905,11.4363,188.856,191.513
42,0,99.1933,396.997,1154.25,122.145,123.048,1121.41,-102.392,282.732,1203,-85.7994,178.795,1194.5,90.6008,470.226,875.577,130.304,441.5,679.233,117.18,448.369,507.401,182.13,401.637,252.03,129.298,352.492,196.912,338.713,400.657,213.686,27.4372,85.0311,836.459,-33.9669,120.651,652.975,-99.0061,124.597,450.2,-135.734,180.945,242.159,-208.129,222.221,203.278,7.95309,188.773,191.405
43,0,100.375,397.642,1153.99,121.987,123.66,1121.23,-101.745,284.288,1202.83,-85.6149,180.309,1194.29,91.0147,470.669,875.186,128.596,442.027,678.425,114.715,448.768,506.543,178.827,401.511,251.08,125.726,352.355,196.316,335.541,400.939,212.322,26.5164,85.6889,836.286,-35.0427,121.417,652.798,-101.08,125.202,450.338,-138.921,181.185,242.438,-211.472,222.459,203.736,4.46904,188.702,191.3
44,0,101.624,398.307,1153.79,121.885,124.302,1121.11,-101.046,285.88,1202.69,-85.3747,181.858,1194.11,91.4916,471.118,874.848,126.897,442.587,677.672,112.209,449.224,505.743,175.444,401.427,250.176,122.093,352.263,195.789,332.333,401.263,210.998,25.6768,86.3812,836.163,-35.9903,122.227,652.65,-103.065,125.845,450.523,-142.078,181.45,242.783,-214.795,222.731,204.287,0.9861,188.644,191.198
45,0,102.933,398.996,1153.63,121.84,124.975,1121.04,-100.296,287.507,1202.58,-85.0794,183.442,1193.96,92.0177,471.575,874.562,125.21,443.175,676.979,109.679,449.733,505.003,172.015,401.379,249.327,118.437,352.208,195.338,329.119,401.613,209.727,24.9251,87.1083,836.092,-36.8027,123.079,652.533,-104.954,126.522,450.757,-145.2,181.736,243.2,-218.094,223.029,204.94,-2.49346,188.596,191.101
46,0,104.298,399.712,1153.52,121.851,125.683,1121.03,-99.4996,289.167,1202.5,-84.7301,185.059,1193.84,92.5793,472.043,874.326,123.536,443.789,676.345,107.138,450.289,504.324,168.568,401.36,248.539,114.786,352.183,194.967,325.924,401.973,208.519,24.2675,87.8698,836.075,-37.4735,123.969,652.45,-106.74,127.226,451.042,-148.28,182.035,243.693,-221.366,223.346,205.702,-5.96714,188.559,191.01
47,0,105.711,400.458,1153.46,121.921,126.426,1121.08,-98.6593,290.857,1202.45,-84.3277,186.706,1193.75,93.1628,472.523,874.138,121.878,444.426,675.772,104.599,450.888,503.707,165.127,401.363,247.818,111.165,352.18,194.674,322.764,402.326,207.382,23.71,88.665,836.114,-37.9972,124.894,652.402,-108.416,127.951,451.38,-151.314,182.341,244.266,-224.607,223.672,206.58,-9.43219,188.53,190.926
48,0,107.167,401.24,1153.44,122.048,127.209,1121.2,-97.7782,292.576,1202.43,-83.8737,188.382,1193.69,93.7548,473.019,873.992,120.238,445.084,675.258,102.072,451.521,503.153,161.709,401.383,247.166,107.589,352.193,194.458,319.647,402.659,206.325,23.2578,89.4929,836.209,-38.3692,125.849,652.39,-109.976,128.691,451.773,-154.297,182.645,244.921,-227.814,223.996,207.579,-12.8857,188.507,190.85
49,0,108.659,402.061,1153.47,122.233,128.032,1121.37,-96.8598,294.322,1202.43,-83.3695,190.085,1193.65,94.3427,473.531,873.887,118.618,445.761,674.802,99.5679,452.185,502.659,158.325,401.413,246.584,104.068,352.216,194.312,316.575,402.962,205.352,22.9162,90.3522,836.36,-38.5856,126.83,652.416,-111.415,129.438,452.219,-157.225,182.937,245.662,-230.985,224.303,208.704,-16.3244,188.489,190.784
50,0,110.181,402.924,1153.54,122.476,128.898,1121.61,-95.9074,296.091,1202.46,-82.8171,191.814,1193.65,94.9146,474.064,873.818,117.023,446.452,674.402,97.0957,452.87,502.225,154.983,401.448,246.073,100.606,352.243,194.23,313.545,403.224,204.468,22.6896,91.2413,836.567,-38.6433,127.83,652.479,-112.73,130.183,452.719,-160.093,183.209,246.489,-234.117,224.581,209.958,-19.7452,188.473,190.728
51,0,111.725,403.833,1153.64,122.777,129.809,1121.91,-94.9246,297.883,1202.51,-82.2183,193.565,1193.67,95.4595,474.619,873.779,115.455,447.157,674.057,94.6628,453.572,501.849,151.686,401.482,245.628,97.2031,352.271,194.202,310.551,403.44,203.672,22.5824,92.1587,836.828,-38.5402,128.844,652.58,-113.915,130.92,453.273,-162.898,183.449,247.404,-237.207,224.815,211.342,-23.1447,188.457,190.682
52,0,113.285,404.791,1153.77,123.134,130.766,1122.26,-93.9148,299.694,1202.59,-81.5756,195.337,1193.72,95.9679,475.198,873.766,113.917,447.873,673.761,92.2756,454.284,501.527,148.436,401.511,245.247,93.8565,352.296,194.219,307.583,403.604,202.964,22.5987,93.1029,837.142,-38.2747,129.867,652.717,-114.969,131.639,453.877,-165.635,183.648,248.405,-240.253,224.99,212.856,-26.5197,188.438,190.646
53,0,114.855,405.802,1153.94,123.546,131.771,1122.68,-92.8818,301.522,1202.68,-80.8911,197.128,1193.79,96.4313,475.804,873.775,112.413,448.599,673.512,89.9395,455,501.256,145.229,401.53,244.925,90.5598,352.313,194.27,304.629,403.715,202.342,22.7421,94.0725,837.503,-37.8462,130.893,652.888,-115.89,132.335,454.531,-168.303,183.796,249.491,-243.254,225.092,214.499,-29.8671,188.414,190.621
54,0,116.43,406.868,1154.12,124.013,132.826,1123.15,-91.8291,303.366,1202.79,-80.1677,198.937,1193.89,96.8425,476.44,873.799,110.948,449.332,673.305,87.6588,455.715,501.033,142.061,401.537,244.655,87.3054,352.321,194.345,301.679,403.772,201.801,23.0162,95.0663,837.909,-37.2543,131.916,653.09,-116.677,133,455.231,-170.9,183.884,250.659,-246.207,225.108,216.267,-33.1838,188.383,190.606
55,0,118.002,407.991,1154.33,124.533,133.93,1123.67,-90.7604,305.224,1202.92,-79.4082,200.761,1194,97.1961,477.107,873.835,109.524,450.072,673.136,85.4371,456.424,500.852,138.927,401.529,244.431,84.0845,352.318,194.436,298.723,403.778,201.337,23.4245,96.0834,838.354,-36.4993,132.932,653.321,-117.329,133.627,455.974,-173.423,183.904,251.907,-249.113,225.026,218.158,-36.4673,188.343,190.599
56,0,119.566,409.172,1154.55,125.103,135.084,1124.24,-89.6791,307.093,1203.06,-78.6155,202.598,1194.13,97.4879,477.807,873.878,108.144,450.818,673,83.2768,457.122,500.71,135.822,401.504,244.246,80.8886,352.301,194.533,295.751,403.736,200.942,23.9702,97.1231,838.832,-35.5815,133.935,653.575,-117.848,134.212,456.757,-175.872,183.851,253.231,-251.968,224.835,220.165,-39.7155,188.292,190.6
57,0,121.118,410.414,1154.77,125.721,136.289,1124.86,-88.5889,308.971,1203.22,-77.793,204.447,1194.28,97.7151,478.542,873.922,106.812,451.569,672.892,81.1796,457.807,500.601,132.738,401.461,244.094,77.7095,352.272,194.63,292.755,403.65,200.608,24.6564,98.1848,839.336,-34.5015,134.921,653.85,-118.234,134.749,457.574,-178.245,183.717,254.626,-254.771,224.529,222.281,-42.9268,188.228,190.607
58,0,122.652,411.715,1155,126.385,137.544,1125.51,-87.4934,310.857,1203.38,-76.9439,206.307,1194.44,97.8764,479.313,873.964,105.53,452.325,672.807,79.1465,458.476,500.521,129.67,401.4,243.967,74.5397,352.228,194.72,289.73,403.528,200.329,25.4861,99.2684,839.859,-33.2596,135.886,654.138,-118.488,135.236,458.423,-180.541,183.501,256.089,-257.522,224.102,224.502,-46.1004,188.151,190.617
59,0,124.163,413.077,1155.22,127.091,138.85,1126.2,-86.3958,312.75,1203.54,-76.0718,208.174,1194.61,97.9718,480.121,874.001,104.301,453.087,672.739,77.1776,459.127,500.464,126.613,401.322,243.858,71.3731,352.171,194.8,286.673,403.374,200.095,26.4622,100.374,840.392,-31.856,136.826,654.436,-118.611,135.671,459.297,-182.762,183.201,257.613,-260.216,223.553,226.819,-49.2362,188.06,190.628
60,0,125.648,414.499,1155.44,127.836,140.205,1126.92,-85.2998,314.646,1203.7,-75.1805,210.049,1194.78,98.0023,480.969,874.027,103.125,453.854,672.685,75.2724,459.759,500.426,123.563,401.227,243.763,68.2049,352.101,194.866,283.583,403.197,199.898,27.5871,101.501,840.928,-30.2904,137.736,654.735,-118.604,136.051,460.194,-184.905,182.817,259.195,-262.852,222.883,229.227,-52.3352,187.954,190.638
61,0,127.102,415.979,1155.65,128.616,141.608,1127.66,-84.2086,316.546,1203.87,-74.2738,211.93,1194.95,97.9701,481.855,874.041,102.004,454.628,672.639,73.4296,460.373,500.402,120.518,401.119,243.675,65.0314,352.02,194.916,280.462,403.002,199.73,28.863,102.649,841.458,-28.5618,138.616,655.031,-118.468,136.376,461.107,-186.97,182.353,260.831,-265.426,222.098,231.719,-55.3991,187.835,190.643
62,0,128.522,417.516,1155.84,129.427,143.058,1128.42,-83.1255,318.447,1204.03,-73.3558,213.815,1195.13,97.8782,482.781,874.039,100.937,455.409,672.597,71.6472,460.969,500.386,117.474,400.998,243.59,61.8507,351.929,194.95,277.311,402.797,199.585,30.2919,103.819,841.974,-26.6687,139.46,655.315,-118.204,136.648,462.034,-188.956,181.813,262.517,-267.933,221.205,234.292,-58.431,187.702,190.641
63,0,129.904,419.107,1156,130.265,144.552,1129.2,-82.0538,320.35,1204.18,-72.4304,215.703,1195.3,97.7302,483.747,874.02,99.923,456.199,672.555,69.9226,461.549,500.376,114.431,400.869,243.505,58.6618,351.831,194.968,274.136,402.588,199.455,31.8749,105.008,842.468,-24.6086,140.268,655.582,-117.81,136.869,462.971,-190.862,181.205,264.251,-270.369,220.217,236.941,-61.4348,187.557,190.629
64,0,131.247,420.75,1156.15,131.125,146.088,1129.98,-80.9966,322.252,1204.32,-71.5021,217.594,1195.46,97.5302,484.753,873.982,98.9602,456.999,672.508,68.2523,462.116,500.366,111.388,400.734,243.415,55.4649,351.728,194.971,270.94,402.38,199.334,33.6128,106.216,842.932,-22.3783,141.038,655.826,-117.286,137.039,463.914,-192.685,180.536,266.031,-272.725,219.147,239.666,-64.4154,187.402,190.605
65,0,132.547,422.44,1156.26,132.001,147.664,1130.76,-79.9568,324.152,1204.46,-70.575,219.486,1195.62,97.2828,485.798,873.924,98.0455,457.812,672.455,66.6323,462.672,500.354,108.346,400.597,243.319,52.2611,351.622,194.961,267.73,402.179,199.218,35.5053,107.442,843.361,-19.9737,141.767,656.039,-116.629,137.164,464.861,-194.422,179.818,267.857,-274.994,218.014,242.468,-67.3784,187.239,190.567
66,0,133.802,424.174,1156.35,132.889,149.277,1131.54,-78.9376,326.051,1204.57,-69.6536,221.379,1195.76,96.9922,486.881,873.844,97.1752,458.638,672.391,65.0579,463.221,500.335,105.307,400.462,243.215,49.052,351.517,194.939,264.512,401.988,199.102,37.5515,108.681,843.748,-17.3902,142.453,656.216,-115.836,137.246,465.809,-196.069,179.061,269.729,-277.166,216.838,245.35,-70.3302,187.071,190.514
67,0,135.01,425.947,1156.4,133.782,150.923,1132.3,-77.9418,327.947,1204.68,-68.7423,223.272,1195.88,96.6629,488.002,873.743,96.3442,459.48,672.313,63.5237,463.765,500.307,102.271,400.333,243.102,45.8401,351.416,194.908,261.29,401.811,198.984,39.7493,109.931,844.091,-14.6221,143.097,656.352,-114.902,137.289,466.759,-197.621,178.279,271.652,-279.231,215.639,248.317,-73.2773,186.899,190.445
68,0,136.17,427.755,1156.42,134.676,152.599,1133.05,-76.9722,329.84,1204.76,-67.8455,225.164,1195.99,96.299,489.159,873.62,95.5469,460.338,672.221,62.0238,464.31,500.268,99.2413,400.213,242.979,42.6277,351.322,194.87,258.071,401.651,198.861,42.0958,111.188,844.385,-11.6637,143.696,656.444,-113.821,137.299,467.709,-199.072,177.485,273.629,-281.177,214.441,251.379,-76.2261,186.728,190.364
69,0,137.279,429.592,1156.4,135.564,154.3,1133.78,-76.0315,331.73,1204.83,-66.9678,227.055,1196.07,95.9042,490.35,873.475,94.7765,461.216,672.112,60.5516,464.859,500.214,96.2186,400.106,242.846,39.4176,351.236,194.826,254.859,401.509,198.731,44.5869,112.447,844.63,-8.50859,144.249,656.487,-112.587,137.278,468.661,-200.415,176.693,275.665,-282.991,213.266,254.544,-79.1825,186.559,190.271
70,0,138.338,431.453,1156.34,136.441,156.024,1134.49,-75.1224,333.616,1204.88,-66.1136,228.945,1196.14,95.4817,491.574,873.309,94.026,462.113,671.984,59.1002,465.414,500.146,93.205,400.015,242.704,36.2125,351.162,194.78,251.657,401.386,198.593,47.2171,113.703,844.826,-5.15068,144.756,656.48,-111.193,137.233,469.616,-201.642,175.915,277.768,-284.657,212.139,257.826,-82.1509,186.396,190.172
71,0,139.343,433.333,1156.24,137.299,157.765,1135.17,-74.2473,335.498,1204.9,-65.2873,230.834,1196.18,95.0341,492.828,873.122,93.2873,463.031,671.837,57.6623,465.981,500.061,90.2021,399.943,242.554,33.0148,351.101,194.731,248.47,401.283,198.448,49.9802,114.948,844.974,-1.58395,145.216,656.422,-109.629,137.166,470.576,-202.742,175.164,279.946,-286.161,211.08,261.238,-85.1343,186.242,190.073
72,0,140.295,435.225,1156.11,138.134,159.52,1135.81,-73.4087,337.376,1204.91,-64.4931,232.72,1196.2,94.5634,494.11,872.915,92.5523,463.97,671.67,56.2304,466.561,499.958,87.2112,399.891,242.395,29.8268,351.054,194.682,245.299,401.2,198.296,52.8684,116.177,845.078,2.19698,145.629,656.313,-107.887,137.083,471.545,-203.705,174.454,282.207,-287.487,210.111,264.793,-88.1328,186.1,189.983
73,0,141.192,437.124,1155.94,138.94,161.283,1136.43,-72.6089,339.249,1204.9,-63.7353,234.603,1196.2,94.0709,495.416,872.689,91.8123,464.932,671.483,54.7968,467.157,499.838,84.2332,399.861,242.229,26.6505,351.023,194.632,242.146,401.135,198.137,55.8731,117.384,845.142,6.19658,145.995,656.155,-105.959,136.986,472.527,-204.521,173.795,284.56,-288.619,209.252,268.505,-91.1434,185.972,189.911
74,0,142.034,439.025,1155.73,139.709,163.051,1137,-71.8502,341.118,1204.87,-63.0179,236.484,1196.17,93.5573,496.745,872.445,91.0589,465.915,671.276,53.3539,467.771,499.7,81.2687,399.853,242.056,23.4875,351.007,194.584,239.012,401.088,197.971,58.9846,118.561,845.171,10.4181,146.314,655.953,-103.833,136.879,473.525,-205.176,173.196,287.014,-289.54,208.517,272.387,-94.1591,185.86,189.869
75,0,142.82,440.92,1155.48,140.438,164.818,1137.54,-71.1345,342.981,1204.81,-62.3447,238.362,1196.12,93.0228,498.092,872.185,90.2834,466.919,671.05,51.8942,468.404,499.544,78.318,399.868,241.878,20.3392,351.006,194.536,235.896,401.058,197.801,62.1922,119.703,845.171,14.8633,146.586,655.71,-101.503,136.765,474.546,-205.658,172.666,289.576,-290.234,207.921,276.449,-97.1683,185.766,189.872
76,0,143.55,442.806,1155.21,141.121,166.58,1138.04,-70.4639,344.839,1204.74,-61.7194,240.236,1196.04,92.467,499.453,871.908,89.4775,467.943,670.805,50.4105,469.055,499.37,75.3807,399.906,241.697,17.2064,351.019,194.49,232.8,401.042,197.627,65.4843,120.803,845.152,19.532,146.812,655.434,-98.9587,136.647,475.592,-205.953,172.21,292.254,-290.686,207.472,280.697,-100.154,185.69,189.933
77,0,144.222,444.676,1154.89,141.752,168.333,1138.5,-69.8402,346.691,1204.65,-61.1454,242.105,1195.94,91.8891,500.824,871.618,88.6335,468.985,670.542,48.896,469.725,499.18,72.4565,399.964,241.512,14.0897,351.045,194.444,229.721,401.039,197.449,68.8485,121.857,845.119,24.4221,146.994,655.132,-96.1932,136.526,476.669,-206.046,171.834,295.051,-290.881,207.177,285.134,-103.093,185.633,190.07
78,0,144.836,446.525,1154.55,142.328,170.071,1138.92,-69.2652,348.536,1204.54,-60.626,243.969,1195.82,91.288,502.202,871.315,87.744,470.042,670.262,47.3447,470.413,498.975,69.5446,400.042,241.324,10.9892,351.081,194.399,226.66,401.047,197.27,72.2719,122.86,845.082,29.529,147.134,654.814,-93.2,136.405,477.782,-205.923,171.538,297.97,-290.805,207.038,289.758,-105.958,185.595,190.298
79,0,145.392,448.349,1154.18,142.842,171.791,1139.31,-68.7402,350.374,1204.42,-60.1638,245.827,1195.67,90.6624,503.581,871,86.8026,471.113,669.968,45.7507,471.116,498.756,66.644,400.137,241.136,7.90486,351.126,194.354,223.615,401.063,197.091,75.7408,123.809,845.049,34.8459,147.234,654.49,-89.9741,136.284,478.934,-205.569,171.324,301.01,-290.446,207.053,294.56,-108.711,185.575,190.634
80,0,145.89,450.143,1153.79,143.293,173.489,1139.66,-68.2668,352.203,1204.29,-59.7616,247.678,1195.51,90.0109,504.957,870.675,85.8034,472.193,669.659,44.1095,471.831,498.524,63.7534,400.247,240.947,4.8362,351.176,194.31,220.584,401.086,196.912,79.2413,124.7,845.028,40.3632,147.296,654.17,-86.512,136.166,480.128,-204.97,171.189,304.165,-289.793,207.215,299.523,-111.313,185.57,191.094
81,0,146.329,451.902,1153.37,143.676,175.16,1139.97,-67.8461,354.023,1204.15,-59.4214,249.521,1195.34,89.3321,506.324,870.342,84.7416,473.28,669.34,42.4169,472.557,498.282,60.8716,400.368,240.76,1.78257,351.23,194.266,217.567,401.113,196.734,82.759,125.534,845.029,46.0692,147.324,653.869,-82.812,136.051,481.366,-204.11,171.131,307.427,-288.836,207.517,304.625,-113.715,185.579,191.693
82,0,146.71,453.623,1152.94,143.988,176.8,1140.26,-67.4793,355.833,1203.99,-59.1452,251.353,1195.15,88.6244,507.677,870.002,83.6135,474.367,669.011,40.6697,473.288,498.031,57.9971,400.497,240.575,-1.25688,351.285,194.221,214.562,401.143,196.558,86.2798,126.308,845.058,51.9494,147.321,653.597,-78.8744,135.941,482.649,-202.974,171.144,310.783,-287.567,207.945,309.835,-115.864,185.597,192.442
83,0,147.031,455.302,1152.48,144.227,178.406,1140.51,-67.1671,357.629,1203.83,-58.9345,253.174,1194.95,87.8866,509.011,869.656,82.416,475.453,668.674,38.8656,474.02,497.774,55.1283,400.631,240.392,-4.28319,351.339,194.177,211.568,401.173,196.386,89.789,127.024,845.123,57.987,147.293,653.369,-74.701,135.835,483.976,-201.549,171.221,314.214,-285.978,208.483,315.113,-117.703,185.621,193.352
84,0,147.294,456.935,1152.02,144.392,179.975,1140.75,-66.9103,359.411,1203.66,-58.7904,254.981,1194.75,87.1176,510.32,869.306,81.1473,476.53,668.333,37.0031,474.75,497.513,52.2638,400.767,240.215,-7.29747,351.388,194.133,208.584,401.201,196.218,93.2727,127.683,845.231,64.1633,147.242,653.198,-70.2959,135.734,485.346,-199.818,171.355,317.698,-284.065,209.116,320.415,-119.169,185.647,194.427
85,0,147.498,458.521,1151.55,144.48,181.503,1140.96,-66.7095,361.177,1203.5,-58.7135,256.772,1194.54,86.3165,511.6,868.953,79.8063,477.594,667.988,35.0815,475.471,497.25,49.4019,400.902,240.043,-10.3009,351.432,194.09,205.608,401.226,196.055,96.717,128.287,845.387,70.4576,147.174,653.095,-65.6648,135.64,486.754,-197.77,171.538,321.207,-281.822,209.823,325.686,-120.198,185.669,195.671
86,0,147.643,460.057,1151.07,144.492,182.988,1141.16,-66.5648,362.924,1203.33,-58.7044,258.545,1194.33,85.4825,512.845,868.6,78.3931,478.641,667.643,33.1007,476.181,496.988,46.5413,401.033,239.879,-13.2947,351.467,194.048,202.64,401.246,195.896,100.109,128.839,845.598,76.8474,147.094,653.075,-60.8153,135.553,488.195,-195.389,171.761,324.712,-279.245,210.584,330.868,-120.726,185.681,197.081
87,0,147.731,461.54,1150.58,144.426,184.427,1141.34,-66.4765,364.65,1203.16,-58.7628,260.296,1194.12,84.6151,514.049,868.247,76.9083,479.665,667.299,31.0613,476.873,496.729,43.6804,401.156,239.724,-16.2801,351.494,194.008,199.678,401.26,195.744,103.436,129.341,845.868,83.3093,147.006,653.149,-55.7564,135.474,489.664,-192.663,172.014,328.177,-276.33,211.379,335.898,-120.688,185.68,198.649
88,0,147.76,462.969,1150.1,144.284,185.818,1141.52,-66.4445,366.351,1203,-58.8885,262.024,1193.91,83.7138,515.208,867.896,75.3533,480.66,666.96,28.9648,477.543,496.477,40.8179,401.27,239.578,-19.2581,351.51,193.972,196.721,401.267,195.598,106.686,129.798,846.201,89.8188,146.916,653.326,-50.4987,135.403,491.15,-189.58,172.287,331.563,-273.074,212.188,340.708,-120.02,185.658,200.365
89,0,147.733,464.342,1149.62,144.066,187.158,1141.69,-66.4684,368.026,1202.84,-59.0805,263.724,1193.72,82.7783,516.317,867.548,73.73,481.622,666.626,26.8127,478.186,496.232,37.9524,401.371,239.445,-22.2299,351.516,193.939,193.767,401.265,195.457,109.85,130.213,846.6,96.3509,146.829,653.617,-45.0536,135.342,492.645,-186.129,172.571,334.831,-269.473,212.992,345.23,-118.666,185.611,202.21
90,0,147.65,465.658,1149.14,143.773,188.447,1141.87,-66.5479,369.671,1202.7,-59.3379,265.394,1193.54,81.8085,517.372,867.205,72.0411,482.545,666.301,24.6071,478.798,495.998,35.0828,401.46,239.324,-25.1963,351.511,193.911,190.816,401.255,195.323,112.92,130.589,847.068,102.881,146.749,654.03,-39.4337,135.291,494.138,-182.298,172.859,337.938,-265.523,213.773,349.394,-116.571,185.532,204.164
91,0,147.51,466.916,1148.67,143.408,189.682,1142.04,-66.6822,371.282,1202.56,-59.659,267.03,1193.37,80.804,518.368,866.868,70.2892,483.426,665.987,22.3503,479.376,495.777,32.2081,401.533,239.217,-28.1581,351.496,193.889,187.866,401.237,195.195,115.888,130.931,847.608,109.383,146.68,654.57,-33.652,135.252,495.616,-178.078,173.14,340.842,-261.219,214.516,353.135,-113.69,185.419,206.202
92,0,147.317,468.114,1148.21,142.972,190.861,1142.23,-66.8706,372.857,1202.44,-60.042,268.629,1193.23,79.7646,519.304,866.539,68.4775,484.26,665.684,20.0449,479.915,495.571,29.3273,401.59,239.126,-31.116,351.47,193.874,184.917,401.21,195.072,118.748,131.24,848.221,115.834,146.627,655.241,-27.722,135.225,497.067,-173.461,173.409,343.502,-256.558,215.207,356.388,-109.985,185.265,208.295
93,0,147.069,469.252,1147.76,142.468,191.985,1142.43,-67.1119,374.391,1202.33,-60.485,270.187,1193.1,78.6899,520.174,866.218,66.6091,485.043,665.396,17.6935,480.413,495.382,26.4397,401.631,239.051,-34.0703,351.436,193.867,181.966,401.176,194.954,121.499,131.521,848.908,122.209,146.594,656.047,-21.6572,135.212,498.478,-168.439,173.659,345.876,-251.533,215.836,359.097,-105.428,185.069,210.412
94,0,146.77,470.33,1147.32,141.9,193.052,1142.65,-67.4049,375.881,1202.23,-60.9853,271.7,1193,77.5795,520.978,865.906,64.6872,485.772,665.123,15.2986,480.867,495.212,23.5446,401.655,238.992,-37.0216,351.393,193.869,179.013,401.135,194.841,124.138,131.776,849.669,128.488,146.583,656.988,-15.471,135.213,499.835,-163.008,173.884,347.928,-246.139,216.394,361.21,-100.001,184.827,212.522
95,0,146.419,471.347,1146.89,141.269,194.061,1142.88,-67.7484,377.324,1202.15,-61.5403,273.165,1192.92,76.4328,521.714,865.604,62.7149,486.444,664.867,12.8627,481.274,495.061,20.6416,401.662,238.951,-39.9699,351.344,193.881,176.056,401.088,194.731,126.666,132.007,850.506,134.647,146.598,658.061,-9.17645,135.228,501.125,-157.162,174.081,349.623,-240.369,216.877,362.685,-93.6986,184.539,214.591
96,0,146.018,472.303,1146.48,140.581,195.012,1143.13,-68.1406,378.716,1202.09,-62.1472,274.578,1192.87,75.2491,522.379,865.314,60.6952,487.056,664.628,10.3882,481.633,494.932,17.7303,401.653,238.927,-42.9154,351.289,193.904,173.095,401.038,194.624,129.085,132.217,851.417,140.669,146.64,659.264,-2.78607,135.26,502.336,-150.9,174.247,350.933,-234.217,217.283,363.489,-86.5235,184.206,216.588
97,0,145.568,473.197,1146.08,139.839,195.904,1143.41,-68.58,380.053,1202.04,-62.8027,275.935,1192.85,74.0274,522.973,865.035,58.6309,487.607,664.409,7.87752,481.943,494.824,14.8105,401.627,238.921,-45.8582,351.229,193.937,170.128,400.984,194.518,131.399,132.407,852.401,146.535,146.711,660.591,3.6883,135.308,503.454,-144.221,174.381,351.833,-227.678,217.612,363.6,-78.4908,183.827,218.483
98,0,145.072,474.029,1145.69,139.047,196.737,1143.71,-69.0646,381.332,1202.01,-63.5035,277.233,1192.86,72.7668,523.496,864.768,56.5246,488.095,664.209,5.33262,482.203,494.74,11.8819,401.585,238.931,-48.7984,351.167,193.981,167.156,400.929,194.414,133.614,132.578,853.458,152.23,146.813,662.035,10.2356,135.374,504.47,-137.125,174.483,352.305,-220.744,217.866,363.007,-69.6258,183.407,220.249
99,0,144.53,474.799,1145.32,138.209,197.512,1144.04,-69.5925,382.549,1202.01,-64.2462,278.468,1192.9,71.4663,523.948,864.513,54.3787,488.52,664.028,2.75546,482.411,494.678,8.94456,401.528,238.957,-51.7361,351.101,194.037,164.176,400.875,194.311,135.735,132.732,854.584,157.739,146.946,663.587,16.8456,135.456,505.373,-129.617,174.552,352.339,-213.411,218.051,361.71,-59.9628,182.949,221.861
100,0,143.944,475.507,1144.96,137.33,198.228,1144.39,-70.1615,383.701,1202.02,-65.027,279.637,1192.97,70.1251,524.33,864.27,52.1952,488.879,663.867,0.14783,482.569,494.639,5.99837,401.457,238.999,-54.6717,351.034,194.103,161.189,400.822,194.207,137.77,132.869,855.777,163.049,147.111,665.236,23.5088,135.556,506.155,-121.7,174.592,351.93,-205.676,218.172,359.721,-49.5449,182.46,223.302
101,0,143.317,476.153,1144.61,136.414,198.885,1144.76,-70.7694,384.784,1202.05,-65.8421,280.738,1193.07,68.7421,524.642,864.039,49.9761,489.175,663.726,-2.48861,482.677,494.623,3.04335,401.372,239.056,-57.6056,350.966,194.181,158.194,400.772,194.102,139.726,132.989,857.033,168.15,147.308,666.971,30.2167,135.675,506.81,-113.383,174.605,351.081,-197.534,218.237,357.06,-38.4221,181.948,224.557
102,0,142.649,476.737,1144.26,135.467,199.484,1145.16,-71.4139,385.797,1202.09,-66.6877,281.766,1193.21,67.3168,524.886,863.82,47.7231,489.407,663.605,-5.15229,482.734,494.629,0.0795102,401.274,239.125,-60.5384,350.896,194.268,155.192,400.727,193.997,141.609,133.092,858.348,173.033,147.536,668.779,36.9612,135.811,507.334,-104.674,174.595,349.802,-188.986,218.255,353.761,-26.6502,181.42,225.618
103,0,141.942,477.26,1143.93,134.493,200.025,1145.58,-72.0924,386.736,1202.16,-67.5596,282.719,1193.37,65.8486,525.063,863.612,45.4379,489.576,663.501,-7.8417,482.742,494.657,-2.89312,401.164,239.205,-63.4711,350.824,194.365,152.181,400.686,193.89,143.425,133.179,859.716,177.69,147.796,670.646,43.7349,135.965,507.723,-95.5836,174.566,348.11,-180.033,218.234,349.865,-14.2895,180.888,226.481
104,0,141.2,477.722,1143.61,133.497,200.509,1146.02,-72.8024,387.598,1202.24,-68.4539,283.595,1193.57,64.3375,525.175,863.414,43.1221,489.682,663.416,-10.5553,482.702,494.705,-5.8745,401.042,239.296,-66.4045,350.75,194.47,149.161,400.652,193.782,145.181,133.248,861.131,182.115,148.085,672.558,50.5309,136.136,507.978,-86.1255,174.523,346.027,-170.677,218.182,345.42,-1.40301,180.361,227.15
105,0,140.423,478.124,1143.29,132.484,200.936,1146.48,-73.5413,388.381,1202.33,-69.3663,284.391,1193.79,62.7837,525.225,863.227,40.7771,489.728,663.347,-13.2915,482.614,494.772,-8.86455,400.909,239.395,-69.3402,350.673,194.583,146.133,400.624,193.674,146.879,133.3,862.585,186.304,148.402,674.501,57.3424,136.325,508.1,-76.3147,174.472,343.583,-160.926,218.108,340.483,11.9446,179.852,227.632
106,0,139.613,478.466,1142.97,131.458,201.307,1146.95,-74.3063,389.083,1202.44,-70.2927,285.106,1194.04,61.188,525.214,863.048,38.4045,489.716,663.294,-16.0488,482.482,494.857,-11.8631,400.764,239.501,-72.2795,350.591,194.703,143.097,400.602,193.564,148.522,133.333,864.071,190.253,148.748,676.459,64.1625,136.531,508.093,-66.1683,174.417,340.811,-150.787,218.02,335.116,25.6885,179.374,227.94
107,0,138.774,478.75,1142.65,130.426,201.623,1147.44,-75.0945,389.703,1202.56,-71.2288,285.738,1194.31,59.5517,525.144,862.876,36.0062,489.646,663.255,-18.8252,482.305,494.958,-14.8701,400.609,239.612,-75.2241,350.503,194.828,140.053,400.587,193.454,150.11,133.347,865.579,193.961,149.12,678.418,70.9841,136.753,507.962,-55.7058,174.363,337.751,-140.273,217.922,329.382,39.7644,178.939,228.092
108,0,137.907,478.976,1142.33,129.392,201.885,1147.93,-75.9031,390.239,1202.7,-72.1704,286.286,1194.6,57.8765,525.019,862.712,33.5839,489.522,663.229,-21.6189,482.087,495.073,-17.8852,400.444,239.726,-78.1757,350.408,194.957,137.001,400.577,193.343,151.64,133.34,867.099,197.425,149.516,680.363,77.7997,136.991,507.714,-44.9487,174.317,334.444,-129.399,217.822,323.352,54.1098,178.56,228.107
109,0,137.015,479.146,1142.01,128.362,202.094,1148.43,-76.7291,390.689,1202.84,-73.1132,286.748,1194.91,56.1649,524.84,862.553,31.1396,489.346,663.214,-24.4278,481.829,495.201,-20.908,400.268,239.841,-81.1359,350.303,195.09,133.941,400.572,193.233,153.109,133.311,868.619,200.645,149.935,682.279,84.601,137.245,507.358,-33.9209,174.282,330.934,-118.184,217.724,317.093,68.6645,178.247,228.01
110,0,136.101,479.262,1141.69,127.339,202.252,1148.93,-77.5693,391.054,1202.99,-74.053,287.125,1195.24,54.4197,524.609,862.398,28.6757,489.12,663.208,-27.2495,481.532,495.34,-23.9381,400.082,239.957,-84.1064,350.187,195.225,130.874,400.571,193.124,154.511,133.259,870.13,203.621,150.376,684.153,91.3787,137.514,506.903,-22.6488,174.263,327.268,-106.649,217.631,310.674,83.3707,178.013,227.826
111,0,135.166,479.325,1141.36,126.33,202.359,1149.43,-78.4207,391.331,1203.15,-74.9854,287.414,1195.58,52.6443,524.33,862.245,26.1946,488.846,663.21,-30.0816,481.201,495.487,-26.975,399.886,240.072,-87.0886,350.059,195.362,127.8,400.573,193.016,155.839,133.183,871.618,206.355,150.836,685.972,98.1222,137.798,506.359,-11.1611,174.264,323.492,-94.8225,217.546,304.164,98.1737,177.866,227.581
112,0,134.214,479.337,1141.03,125.34,202.417,1149.91,-79.28,391.522,1203.31,-75.9062,287.617,1195.93,50.8424,524.005,862.095,23.6992,488.529,663.218,-32.9214,480.835,495.641,-30.018,399.68,240.185,-90.0836,349.917,195.498,124.719,400.576,192.91,157.083,133.08,873.071,208.848,151.312,687.723,104.82,138.095,505.738,0.510741,174.289,319.653,-82.733,217.47,297.626,113.022,177.814,227.303
113,0,133.247,479.301,1140.68,124.374,202.428,1150.39,-80.1439,391.626,1203.48,-76.8112,287.734,1196.29,49.0182,523.635,861.945,21.1924,488.169,663.23,-35.7662,480.439,495.801,-33.0663,399.465,240.294,-93.0925,349.759,195.635,121.631,400.581,192.807,158.234,132.951,874.477,211.102,151.804,689.394,111.458,138.406,505.052,12.3325,174.341,315.795,-70.4153,217.406,291.123,127.865,177.863,227.018
114,0,132.269,479.22,1140.33,123.437,202.394,1150.85,-81.0091,391.644,1203.64,-77.6962,287.765,1196.65,47.1764,523.225,861.794,18.6775,487.772,663.244,-38.6129,480.015,495.964,-36.1191,399.24,240.398,-96.1157,349.584,195.77,118.538,400.584,192.706,159.281,132.794,875.823,213.119,152.308,690.977,118.023,138.729,504.311,24.2671,174.421,311.962,-57.9075,217.354,284.713,142.656,178.016,226.749
115,0,131.282,479.095,1139.97,122.533,202.316,1151.29,-81.8723,391.575,1203.81,-78.5571,287.711,1197.01,45.3215,522.775,861.641,16.158,487.338,663.259,-41.4586,479.565,496.128,-39.1757,399.005,240.498,-99.1535,349.392,195.905,115.439,400.585,192.608,160.215,132.607,877.097,214.902,152.823,692.459,124.497,139.065,503.526,36.275,174.533,308.193,-45.2521,217.315,278.447,157.35,178.275,226.52
116,0,130.29,478.929,1139.6,121.668,202.197,1151.71,-82.7298,391.422,1203.97,-79.3898,287.572,1197.38,43.4585,522.29,861.485,13.6375,486.872,663.273,-44.3002,479.091,496.293,-42.2353,398.762,240.592,-102.206,349.182,196.039,112.335,400.583,192.513,161.024,132.391,878.288,216.455,153.344,693.833,130.863,139.412,502.708,48.3133,174.677,304.523,-32.4955,217.291,272.373,171.903,178.638,226.348
117,0,129.296,478.725,1139.21,120.848,202.038,1152.1,-83.5782,391.186,1204.13,-80.1905,287.351,1197.73,41.5921,521.771,861.325,11.1198,486.375,663.285,-47.1348,478.597,496.456,-45.2973,398.51,240.68,-105.272,348.954,196.171,109.225,400.576,192.423,161.702,132.143,879.385,217.78,153.871,695.091,137.1,139.77,501.865,60.3367,174.855,300.986,-19.6881,217.283,266.531,186.27,179.101,226.249
118,0,128.303,478.487,1138.82,120.075,201.842,1152.45,-84.4139,390.867,1204.28,-80.955,287.049,1198.08,39.7271,521.221,861.161,8.60874,485.853,663.293,-49.9594,478.085,496.618,-48.361,398.251,240.762,-108.353,348.708,196.303,106.109,400.563,192.336,162.24,131.865,880.379,218.883,154.398,696.227,143.188,140.138,501.006,72.2972,175.067,297.608,-6.88404,217.294,260.957,200.409,179.66,226.233
119,0,127.314,478.217,1138.42,119.356,201.611,1152.78,-85.2334,390.468,1204.43,-81.6797,286.667,1198.41,37.8683,520.643,860.991,6.10836,485.306,663.297,-52.7711,477.557,496.776,-51.4261,397.985,240.838,-111.446,348.446,196.434,102.987,400.545,192.253,162.633,131.557,881.26,219.766,154.925,697.235,149.105,140.516,500.137,84.1445,175.313,294.41,5.85913,217.326,255.679,214.275,180.305,226.306
120,0,126.332,477.919,1138.01,118.695,201.347,1153.07,-86.0329,389.99,1204.56,-82.361,286.208,1198.74,36.0201,520.04,860.815,3.6226,484.738,663.295,-55.5673,477.017,496.929,-54.4924,397.712,240.908,-114.551,348.168,196.565,99.8587,400.519,192.174,162.879,131.218,882.023,220.434,155.446,698.109,154.828,140.903,499.263,95.826,175.595,291.41,18.4809,217.383,250.719,227.824,181.028,226.469
121,0,125.362,477.594,1137.59,118.096,201.052,1153.32,-86.8088,389.437,1204.69,-82.9952,285.674,1199.05,34.1867,519.415,860.633,1.15545,484.152,663.286,-58.3453,476.466,497.079,-57.56,397.435,240.974,-117.668,347.876,196.698,96.7223,400.487,192.099,162.977,130.85,882.66,220.893,155.959,698.847,160.331,141.298,498.389,107.288,175.91,288.619,30.9181,217.467,246.093,241.01,181.817,226.718
122,0,124.406,477.246,1137.17,117.563,200.729,1153.53,-87.5575,388.81,1204.81,-83.579,285.067,1199.34,32.372,518.771,860.444,-1.28917,483.551,663.27,-61.1028,475.907,497.224,-60.6292,397.153,241.035,-120.795,347.572,196.832,93.577,400.447,192.028,162.93,130.455,883.169,221.147,156.461,699.446,165.593,141.7,497.515,118.475,176.259,286.042,43.1059,217.585,241.81,253.789,182.661,227.043
123,0,123.469,476.878,1136.74,117.1,200.38,1153.7,-88.2752,388.112,1204.92,-84.1092,284.389,1199.62,30.5796,518.111,860.25,-3.70736,482.937,663.246,-63.8376,475.341,497.364,-63.7003,396.869,241.092,-123.932,347.258,196.968,90.4216,400.4,191.96,162.743,130.035,883.548,221.201,156.947,699.905,170.587,142.108,496.642,129.332,176.641,283.679,54.9783,217.738,237.872,266.113,183.547,227.43
124,0,122.552,476.493,1136.3,116.712,200.006,1153.83,-88.9585,387.345,1205.01,-84.5829,283.645,1199.87,28.8129,517.437,860.048,-6.09533,482.313,663.215,-66.5476,474.772,497.5,-66.7743,396.584,241.146,-127.078,346.936,197.107,87.2548,400.347,191.895,162.425,129.593,883.795,221.061,157.415,700.222,175.292,142.522,495.771,139.803,177.055,281.527,66.469,217.933,234.279,277.937,184.462,227.861
125,0,121.66,476.091,1135.87,116.4,199.611,1153.92,-89.6036,386.514,1205.1,-84.9971,282.835,1200.11,27.075,516.753,859.841,-8.44933,481.681,663.176,-69.2309,474.201,497.632,-69.8518,396.299,241.199,-130.233,346.608,197.251,84.0752,400.288,191.832,161.985,129.131,883.911,220.733,157.861,700.398,179.683,142.939,494.897,149.834,177.499,279.576,77.5126,218.172,231.021,289.212,185.395,228.315
126,0,120.796,475.677,1135.43,116.168,199.196,1153.97,-90.207,385.62,1205.17,-85.3494,281.964,1200.33,25.3686,516.063,859.629,-10.7657,481.042,663.129,-71.8858,473.629,497.761,-72.934,396.015,241.251,-133.398,346.278,197.399,80.8815,400.223,191.772,161.437,128.653,883.901,220.222,158.281,700.435,183.74,143.358,494.02,159.373,177.971,277.815,88.0451,218.458,228.087,299.896,186.332,228.767
127,0,119.964,475.25,1134.99,116.018,198.762,1153.97,-90.7653,384.668,1205.24,-85.6375,281.035,1200.53,23.6964,515.368,859.412,-13.0409,480.4,663.077,-74.5105,473.057,497.889,-76.0219,395.734,241.303,-136.571,345.948,197.552,77.6726,400.154,191.712,160.795,128.164,883.768,219.536,158.673,700.336,187.443,143.778,493.133,168.37,178.47,276.225,98.0059,218.795,225.46,309.944,187.263,229.191
128,0,119.166,474.813,1134.56,115.953,198.311,1153.95,-91.2752,383.659,1205.29,-85.8592,280.049,1200.71,22.0608,514.671,859.191,-15.2714,479.754,663.018,-77.1033,472.488,498.016,-79.1166,395.457,241.358,-139.754,345.62,197.711,74.4476,400.081,191.654,160.076,127.667,883.518,218.681,159.034,700.104,190.775,144.196,492.234,176.779,178.993,274.791,107.338,219.181,223.121,319.316,188.178,229.56
129,0,118.405,474.367,1134.14,115.975,197.846,1153.88,-91.7334,382.599,1205.34,-86.0128,279.011,1200.87,20.4644,513.975,858.968,-17.4536,479.108,662.955,-79.6625,471.921,498.145,-82.219,395.186,241.416,-142.947,345.296,197.878,71.2058,400.006,191.594,159.296,127.167,883.159,217.664,159.36,699.744,193.721,144.611,491.318,184.56,179.538,273.49,115.99,219.618,221.046,327.975,189.066,229.846
130,0,117.685,473.912,1133.73,116.084,197.365,1153.79,-92.1367,381.489,1205.38,-86.0969,277.924,1201.01,18.9097,513.281,858.743,-19.5841,478.46,662.89,-82.1864,471.358,498.278,-85.3302,394.921,241.479,-146.149,344.979,198.052,67.9469,399.93,191.534,158.473,126.669,882.699,216.491,159.649,699.263,196.27,145.02,490.381,191.676,180.1,272.302,123.916,220.104,219.213,335.891,189.922,230.024
131,0,117.009,473.449,1133.32,116.281,196.872,1153.66,-92.4824,380.334,1205.41,-86.1102,276.791,1201.14,17.3991,512.592,858.52,-21.6595,477.813,662.823,-84.6729,470.798,498.417,-88.4509,394.664,241.55,-149.362,344.671,198.236,64.671,399.852,191.472,157.623,126.177,882.148,215.171,159.899,698.667,198.413,145.42,489.419,198.098,180.677,271.206,131.078,220.634,217.595,343.037,190.737,230.07
132,0,116.379,472.977,1132.94,116.567,196.365,1153.51,-92.7676,379.137,1205.44,-86.0519,275.615,1201.25,15.9353,511.91,858.298,-23.6763,477.167,662.758,-87.1201,470.242,498.564,-91.5813,394.414,241.631,-152.586,344.373,198.43,61.3784,399.775,191.407,156.765,125.695,881.516,213.711,160.108,697.965,200.145,145.808,488.428,203.804,181.264,270.18,137.447,221.203,216.168,349.395,191.507,229.964
133,0,115.799,472.496,1132.57,116.941,195.846,1153.33,-92.9898,377.902,1205.47,-85.9216,274.399,1201.35,14.5213,511.234,858.081,-25.631,476.521,662.695,-89.5256,469.69,498.723,-94.7218,394.174,241.724,-155.82,344.086,198.636,58.0698,399.699,191.339,155.912,125.229,880.815,212.119,160.273,697.166,201.465,146.182,487.407,208.779,181.857,269.206,143.001,221.806,214.905,354.952,192.228,229.69
134,0,115.271,472.005,1132.22,117.403,195.313,1153.14,-93.1467,376.631,1205.49,-85.7189,273.147,1201.45,13.16,510.566,857.87,-27.5201,475.876,662.639,-91.8868,469.141,498.897,-97.8719,393.943,241.833,-159.066,343.812,198.858,54.7462,399.623,191.269,155.081,124.781,880.057,210.402,160.394,696.281,202.376,146.538,486.355,213.015,182.451,268.264,147.731,222.433,213.783,359.705,192.898,229.236
135,0,114.798,471.502,1131.89,117.95,194.768,1152.93,-93.2364,375.328,1205.51,-85.4442,271.86,1201.53,11.8549,509.906,857.668,-29.34,475.23,662.592,-94.2009,468.595,499.088,-101.031,393.721,241.96,-162.321,343.551,199.097,51.4088,399.55,191.194,154.282,124.355,879.253,208.569,160.469,695.32,202.884,146.873,485.273,216.514,183.042,267.342,151.633,223.077,212.78,363.66,193.513,228.597
136,0,114.382,470.987,1131.59,118.582,194.208,1152.71,-93.257,373.996,1205.54,-85.0978,270.543,1201.61,10.6095,509.254,857.478,-31.0872,474.583,662.556,-96.4648,468.052,499.301,-104.198,393.508,242.11,-165.587,343.304,199.358,48.059,399.478,191.117,153.526,123.952,878.416,206.628,160.497,694.297,202.999,147.182,484.162,219.284,183.622,266.425,154.719,223.727,211.875,366.829,194.074,227.773
137,0,114.026,470.456,1131.31,119.296,193.633,1152.49,-93.207,372.639,1205.58,-84.6805,269.199,1201.69,9.42751,508.608,857.301,-32.7582,473.934,662.535,-98.6751,467.51,499.539,-107.371,393.304,242.286,-168.861,343.071,199.645,44.6981,399.409,191.036,152.822,123.575,877.559,204.587,160.477,693.222,202.734,147.463,483.026,221.344,184.188,265.505,157.007,224.373,211.052,369.235,194.581,226.769
138,0,113.733,469.908,1131.07,120.09,193.042,1152.27,-93.0854,371.259,1205.62,-84.1936,267.829,1201.77,8.31302,507.969,857.141,-34.3493,473.283,662.533,-100.828,466.97,499.805,-110.547,393.108,242.493,-172.142,342.851,199.962,41.3278,399.342,190.952,152.175,123.225,876.694,202.454,160.409,692.111,202.106,147.71,481.869,222.717,184.733,264.576,158.525,225.004,210.295,370.908,195.034,225.598
139,0,113.503,469.339,1130.87,120.959,192.433,1152.05,-92.8912,369.86,1205.67,-83.6385,266.437,1201.85,7.27012,507.334,857.001,-35.857,472.626,662.551,-102.92,466.43,500.104,-113.725,392.921,242.735,-175.428,342.644,200.316,37.9495,399.276,190.865,151.589,122.9,875.832,200.238,160.292,690.975,201.136,147.922,480.698,223.436,185.253,263.635,159.311,225.611,209.593,371.884,195.434,224.275
140,0,113.341,468.748,1130.7,121.901,191.803,1151.83,-92.6241,368.443,1205.73,-83.017,265.025,1201.94,6.30298,506.701,856.884,-37.278,471.964,662.595,-104.947,465.889,500.439,-116.9,392.741,243.017,-178.717,342.45,200.713,34.5648,399.212,190.777,151.065,122.599,874.986,197.948,160.125,689.828,199.844,148.093,479.521,223.538,185.742,262.683,159.411,226.183,208.938,372.209,195.784,222.823
141,0,113.246,468.131,1130.56,122.911,191.152,1151.63,-92.2839,367.012,1205.8,-82.3311,263.596,1202.04,5.41582,506.068,856.792,-38.6088,471.294,662.666,-106.905,465.348,500.813,-120.068,392.567,243.344,-182.007,342.268,201.159,31.1752,399.15,190.687,150.603,122.32,874.166,195.59,159.909,688.683,198.255,148.221,478.344,223.067,186.194,261.721,158.876,226.713,208.322,371.931,196.084,221.266
142,0,113.222,467.485,1130.47,123.985,190.475,1151.45,-91.8708,365.568,1205.89,-81.5833,262.151,1202.14,4.61274,505.433,856.728,-39.8464,470.616,662.768,-108.789,464.805,501.229,-123.226,392.399,243.721,-185.293,342.098,201.662,27.7821,399.088,190.597,150.201,122.059,873.383,193.174,159.643,687.553,196.394,148.302,477.177,222.069,186.606,260.757,157.765,227.192,207.742,371.104,196.338,219.634
143,0,113.27,466.808,1130.43,125.119,189.772,1151.28,-91.3855,364.114,1206,-80.7761,260.692,1202.26,3.89769,504.792,856.695,-40.9876,469.927,662.903,-110.595,464.26,501.691,-126.368,392.236,244.153,-188.574,341.939,202.23,24.387,399.027,190.508,149.853,121.811,872.644,190.707,159.328,686.45,194.29,148.333,476.03,220.597,186.975,259.796,156.138,227.615,207.197,369.785,196.547,217.956
144,0,113.391,466.095,1130.43,126.307,189.039,1151.13,-90.8289,362.652,1206.12,-79.9124,259.223,1202.4,3.27436,504.143,856.696,-42.0298,469.228,663.074,-112.319,463.713,502.2,-129.49,392.077,244.643,-191.844,341.79,202.871,20.9912,398.966,190.421,149.553,121.571,871.958,188.197,158.963,685.384,191.968,148.313,474.911,218.701,187.295,258.847,154.059,227.977,206.684,368.033,196.715,216.262
145,0,113.586,465.345,1130.47,127.546,188.273,1151.01,-90.2024,361.183,1206.27,-78.9952,257.743,1202.54,2.74613,503.483,856.733,-42.9704,468.516,663.284,-113.957,463.164,502.76,-132.586,391.923,245.197,-195.101,341.651,203.591,17.596,398.905,190.336,149.295,121.332,871.332,185.651,158.55,684.365,189.456,148.238,473.829,216.435,187.566,257.919,151.592,228.276,206.207,365.905,196.844,214.584
146,0,113.856,464.554,1130.56,128.828,187.473,1150.91,-89.5079,359.708,1206.43,-78.0279,256.254,1202.71,2.31594,502.81,856.807,-43.8071,467.791,663.532,-115.506,462.612,503.371,-135.651,391.773,245.817,-198.34,341.522,204.4,14.2028,398.842,190.254,149.07,121.087,870.771,183.077,158.087,683.402,186.781,148.109,472.792,213.853,187.785,257.022,148.8,228.509,205.765,363.459,196.938,212.95
147,0,114.201,463.719,1130.7,130.15,186.635,1150.84,-88.7473,358.229,1206.61,-77.0139,254.759,1202.89,1.98631,502.12,856.921,-44.5381,467.052,663.822,-116.962,462.059,504.034,-138.681,391.628,246.508,-201.557,341.402,205.302,10.8128,398.779,190.178,148.869,120.828,870.277,180.479,157.576,682.5,183.969,147.924,471.808,211.004,187.952,256.165,145.744,228.678,205.361,360.75,196.998,211.384
148,0,114.622,462.839,1130.9,131.506,185.757,1150.8,-87.9233,356.748,1206.81,-75.9568,253.257,1203.1,1.75923,501.41,857.075,-45.1617,466.3,664.152,-118.322,461.505,504.749,-141.669,391.487,247.271,-204.748,341.293,206.305,7.42737,398.714,190.106,148.681,120.547,869.852,177.866,157.018,681.665,181.044,147.684,470.883,207.937,188.067,255.356,142.481,228.785,204.995,357.829,197.028,209.911
149,0,115.118,461.911,1131.14,132.892,184.836,1150.78,-87.0387,355.263,1207.04,-74.8603,251.749,1203.32,1.63615,500.68,857.27,-45.6766,465.534,664.523,-119.583,460.95,505.517,-144.612,391.351,248.108,-207.91,341.195,207.413,4.04781,398.647,190.041,148.496,120.234,869.497,175.242,156.412,680.9,178.03,147.389,470.021,204.699,188.132,254.601,139.063,228.833,204.669,354.742,197.031,208.547
150,0,115.688,460.934,1131.42,134.301,183.871,1150.79,-86.0968,353.777,1207.28,-73.7283,250.237,1203.55,1.618,499.925,857.506,-46.0817,464.756,664.934,-120.745,460.396,506.336,-147.506,391.223,249.018,-211.039,341.11,208.629,0.675444,398.578,189.983,148.304,119.883,869.209,172.613,155.76,680.206,174.947,147.042,469.227,201.329,188.149,253.906,135.538,228.827,204.383,351.532,197.011,207.307
151,0,116.332,459.906,1131.76,135.728,182.86,1150.83,-85.1011,352.288,1207.54,-72.5646,248.72,1203.81,1.70515,499.146,857.783,-46.3762,463.965,665.382,-121.804,459.843,507.203,-150.348,391.103,250.003,-214.133,341.038,209.956,-2.68834,398.506,189.933,148.092,119.483,868.987,169.984,155.064,679.583,171.815,146.643,468.501,197.866,188.12,253.274,131.945,228.773,204.136,348.236,196.97,206.2
152,0,117.047,458.826,1132.14,137.17,181.8,1150.89,-84.0557,350.798,1207.82,-71.3733,247.199,1204.08,1.89749,498.341,858.1,-46.5597,463.164,665.867,-122.761,459.294,508.116,-153.134,390.995,251.06,-217.188,340.984,211.393,-6.04209,398.433,189.89,147.851,119.028,868.823,167.359,154.324,679.03,168.651,146.196,467.844,194.341,188.05,252.708,128.32,228.678,203.926,344.884,196.912,205.23
153,0,117.832,457.694,1132.57,138.621,180.692,1150.97,-82.9647,349.306,1208.11,-70.1584,245.673,1204.37,2.19443,497.508,858.455,-46.6315,462.354,666.383,-123.615,458.749,509.072,-155.863,390.899,252.187,-220.204,340.948,212.939,-9.38428,398.356,189.857,147.57,118.51,868.714,164.744,153.542,678.542,165.47,145.705,467.256,190.78,187.943,252.207,124.69,228.548,203.751,341.502,196.839,204.398
154,0,118.683,456.509,1133.04,140.076,179.534,1151.07,-81.8326,347.811,1208.42,-68.9239,244.143,1204.67,2.59497,496.649,858.845,-46.5913,461.537,666.929,-124.367,458.212,510.066,-158.534,390.819,253.379,-223.178,340.936,214.59,-12.7133,398.278,189.833,147.239,117.923,868.65,162.142,152.72,678.115,162.285,145.173,466.732,187.208,187.804,251.768,121.077,228.391,203.607,338.11,196.755,203.697
155,0,119.598,455.273,1133.55,141.532,178.326,1151.19,-80.6643,346.313,1208.74,-67.6739,242.609,1204.97,3.09779,495.763,859.267,-46.4388,460.717,667.497,-125.016,457.682,511.093,-161.146,390.758,254.633,-226.111,340.949,216.341,-16.0273,398.196,189.817,146.849,117.261,868.625,159.556,151.859,677.742,159.107,144.604,466.269,183.642,187.638,251.388,117.497,228.215,203.489,334.724,196.661,203.122
156,0,120.572,453.986,1134.1,142.984,177.069,1151.32,-79.4649,344.812,1209.07,-66.4124,241.069,1205.29,3.70129,494.851,859.718,-46.1733,459.896,668.085,-125.563,457.163,512.148,-163.701,390.719,255.943,-229.003,340.993,218.185,-19.3245,398.113,189.811,146.391,116.52,868.63,156.992,150.961,677.417,155.945,144.002,465.862,180.095,187.451,251.063,113.962,228.026,203.393,331.354,196.561,202.662
157,0,121.601,452.649,1134.68,144.428,175.762,1151.45,-78.2397,343.307,1209.4,-65.1436,239.525,1205.62,4.40372,493.914,860.193,-45.7942,459.077,668.684,-126.01,456.657,513.225,-166.198,390.705,257.302,-231.855,341.071,220.112,-22.603,398.026,189.815,145.86,115.696,868.655,154.452,150.03,677.133,152.807,143.373,465.504,176.577,187.248,250.786,110.476,227.831,203.315,328.008,196.457,202.304
158,0,122.681,451.265,1135.29,145.86,174.407,1151.6,-76.994,341.797,1209.74,-63.8715,237.974,1205.95,5.20318,492.954,860.688,-45.3004,458.264,669.289,-126.358,456.166,514.317,-168.641,390.719,258.704,-234.668,341.187,222.113,-25.8606,397.937,189.826,145.25,114.789,868.691,151.941,149.066,676.881,149.699,142.72,465.19,173.094,187.035,250.55,107.043,227.637,203.249,324.688,196.35,202.033
159,0,123.804,449.835,1135.93,147.278,173.006,1151.74,-75.7337,340.281,1210.08,-62.6,236.416,1206.28,6.09779,491.974,861.197,-44.6903,457.461,669.893,-126.608,455.692,515.418,-171.031,390.764,260.142,-237.443,341.345,224.176,-29.0952,397.845,189.846,144.559,113.797,868.731,149.462,148.074,676.655,146.626,142.048,464.911,169.65,186.816,250.347,103.661,227.448,203.19,321.396,196.243,201.836
160,0,124.967,448.363,1136.59,148.677,171.56,1151.88,-74.4644,338.758,1210.41,-61.3332,234.852,1206.6,7.0857,490.976,861.715,-43.962,456.672,670.489,-126.76,455.238,516.521,-173.369,390.843,261.608,-240.184,341.549,226.291,-32.3049,397.75,189.873,143.783,112.724,868.765,147.02,147.054,676.445,143.592,141.361,464.661,166.247,186.596,250.171,100.327,227.268,203.135,318.131,196.136,201.696
161,0,126.161,446.851,1137.26,150.056,170.073,1152.02,-73.1921,337.227,1210.75,-60.075,233.279,1206.93,8.16516,489.962,862.236,-43.1129,455.901,671.068,-126.814,454.805,517.619,-175.66,390.957,263.095,-242.89,341.801,228.445,-35.4877,397.652,189.905,142.926,111.572,868.787,144.619,146.01,676.244,140.601,140.662,464.433,162.883,186.379,250.013,97.0356,227.102,203.08,314.89,196.029,201.6
162,0,127.38,445.303,1137.95,151.41,168.546,1152.14,-71.9229,335.688,1211.07,-58.8291,231.698,1207.24,9.33457,488.936,862.753,-42.1398,455.153,671.624,-126.772,454.396,518.705,-177.904,391.109,264.597,-245.566,342.102,230.628,-38.6422,397.55,189.942,141.99,110.346,868.789,142.262,144.944,676.047,137.654,139.955,464.22,159.556,186.168,249.867,93.7812,226.951,203.021,311.671,195.925,201.535
163,0,128.616,443.722,1138.64,152.737,166.984,1152.25,-70.6626,334.139,1211.38,-57.5995,230.108,1207.55,10.5925,487.902,863.261,-41.0385,454.432,672.148,-126.63,454.013,519.774,-180.104,391.299,266.108,-248.21,342.455,232.829,-41.7673,397.444,189.981,140.982,109.052,868.766,139.954,143.859,675.846,134.754,139.242,464.014,156.264,185.965,249.726,90.5571,226.816,202.957,308.468,195.822,201.487
164,0,129.861,442.113,1139.33,154.035,165.391,1152.35,-69.4172,332.58,1211.68,-56.3897,228.508,1207.84,11.9378,486.862,863.754,-39.8045,453.742,672.635,-126.389,453.659,520.819,-182.26,391.528,267.624,-250.825,342.858,235.04,-44.8624,397.333,190.02,139.908,107.699,868.714,137.698,142.758,675.636,131.903,138.525,463.811,153.004,185.771,249.585,87.3569,226.697,202.886,305.279,195.721,201.448
165,0,131.107,440.479,1140.02,155.302,163.769,1152.42,-68.1929,331.01,1211.96,-55.2036,226.898,1208.11,13.3693,485.821,864.225,-38.4323,453.087,673.075,-126.044,453.335,521.836,-184.374,391.794,269.14,-253.409,343.311,237.256,-47.9279,397.217,190.057,138.78,106.296,868.629,135.498,141.643,675.413,129.102,137.805,463.605,149.772,185.588,249.437,84.1743,226.593,202.808,302.1,195.621,201.407
166,0,132.346,438.825,1140.7,156.534,162.124,1152.46,-66.9954,329.429,1212.23,-54.0445,225.278,1208.37,14.8863,484.781,864.67,-36.9157,452.473,673.465,-125.592,453.044,522.819,-186.445,392.097,270.656,-255.961,343.809,239.472,-50.9652,397.093,190.089,137.609,104.851,868.51,133.358,140.517,675.174,126.351,137.085,463.393,146.564,185.414,249.281,81.0041,226.503,202.722,298.927,195.522,201.359
167,0,133.567,437.156,1141.37,157.73,160.459,1152.48,-65.8306,327.836,1212.47,-52.9161,223.647,1208.61,16.4879,483.748,865.083,-35.248,451.902,673.797,-125.029,452.786,523.766,-188.471,392.434,272.172,-258.477,344.349,241.69,-53.9765,396.962,190.113,136.408,103.378,868.354,131.279,139.381,674.917,123.651,136.364,463.17,143.378,185.25,249.112,77.8416,226.425,202.63,295.759,195.424,201.299
168,0,134.763,435.475,1142.02,158.888,158.781,1152.47,-64.7042,326.231,1212.68,-51.8215,222.005,1208.83,18.1736,482.724,865.459,-33.4219,451.378,674.066,-124.347,452.565,524.673,-190.449,392.801,273.691,-260.953,344.925,243.911,-56.9653,396.821,190.128,135.193,101.886,868.163,129.263,138.239,674.639,121.002,135.642,462.935,140.211,185.095,248.929,74.6834,226.354,202.532,292.593,195.326,201.223
169,0,135.925,433.789,1142.65,160.006,157.093,1152.43,-63.6215,324.614,1212.88,-50.7641,220.352,1209.03,19.9427,481.712,865.796,-31.4297,450.905,674.27,-123.54,452.38,525.539,-192.375,393.195,275.216,-263.381,345.528,246.144,-59.9363,396.67,190.13,133.979,100.387,867.935,127.313,137.092,674.341,118.403,134.92,462.684,137.06,184.945,248.731,71.527,226.289,202.429,289.429,195.227,201.13
170,0,137.044,432.1,1143.26,161.082,155.4,1152.36,-62.5877,322.984,1213.04,-49.747,218.689,1209.2,21.7944,480.717,866.09,-29.2633,450.484,674.406,-122.6,452.235,526.363,-194.244,393.61,276.754,-265.753,346.151,248.398,-62.8951,396.506,190.12,132.781,98.8932,867.672,125.427,135.942,674.023,115.854,134.197,462.419,133.925,184.801,248.518,68.3708,226.226,202.325,286.266,195.126,201.019
171,0,138.11,430.413,1143.84,162.113,153.707,1152.26,-61.608,321.342,1213.18,-48.7731,217.015,1209.35,23.728,479.741,866.338,-26.9149,450.12,674.47,-121.517,452.128,527.146,-196.047,394.04,278.314,-268.059,346.781,250.689,-65.8481,396.329,190.095,131.613,97.4152,867.377,123.606,134.792,673.685,113.354,133.473,462.138,130.804,184.658,248.289,65.2143,226.16,202.219,283.105,195.024,200.891
172,0,139.116,428.734,1144.39,163.099,152.019,1152.12,-60.6868,319.689,1213.29,-47.8452,215.332,1209.47,25.7424,478.787,866.54,-24.3767,449.812,674.464,-120.281,452.062,527.89,-197.776,394.478,279.907,-270.286,347.406,253.033,-68.8022,396.135,190.058,130.489,95.9633,867.05,121.846,133.642,673.329,110.9,132.747,461.842,127.697,184.516,248.048,62.0577,226.09,202.115,279.945,194.921,200.747
173,0,140.053,427.066,1144.9,164.038,150.341,1151.95,-59.8287,318.025,1213.37,-46.9659,213.639,1209.57,27.8361,477.857,866.695,-21.6413,449.563,674.388,-118.882,452.036,528.598,-199.42,394.918,281.544,-272.419,348.015,255.45,-71.7642,395.925,190.009,129.42,94.5469,866.693,120.146,132.496,672.957,108.49,132.019,461.532,124.602,184.371,247.794,58.9016,226.011,202.013,276.788,194.815,200.59
174,0,140.913,425.414,1145.38,164.927,148.677,1151.74,-59.0375,316.35,1213.42,-46.1378,211.939,1209.64,30.0074,476.955,866.803,-18.7019,449.373,674.245,-117.309,452.05,529.272,-200.969,395.35,283.239,-274.443,348.592,257.963,-74.7406,395.695,189.952,128.417,93.1741,866.31,118.499,131.354,672.572,106.12,131.288,461.21,121.52,184.223,247.53,55.7475,225.922,201.915,273.636,194.707,200.422
175,0,141.69,423.78,1145.83,165.766,147.031,1151.51,-58.3168,314.667,1213.44,-45.363,210.231,1209.69,32.2539,476.082,866.866,-15.5529,449.243,674.036,-115.551,452.103,529.919,-202.407,395.768,285.006,-276.34,349.123,260.596,-77.7364,395.447,189.893,127.487,91.8518,865.902,116.901,130.219,672.176,103.786,130.554,460.877,118.45,184.069,247.259,52.5969,225.82,201.821,270.49,194.597,200.247
176,0,142.377,422.17,1146.24,166.553,145.408,1151.24,-57.6699,312.975,1213.44,-44.6437,208.518,1209.71,34.5728,475.24,866.886,-12.1895,449.17,673.769,-113.599,452.195,530.544,-203.722,396.164,286.858,-278.092,349.592,263.371,-80.7546,395.178,189.839,126.633,90.5851,865.472,115.346,129.092,671.771,101.484,129.818,460.535,115.394,183.908,246.982,49.4516,225.704,201.733,267.352,194.486,200.066
177,0,142.968,420.586,1146.61,167.286,143.811,1150.94,-57.0994,311.276,1213.4,-43.9817,206.8,1209.7,36.9606,474.431,866.866,-8.60868,449.155,673.448,-111.441,452.324,531.154,-204.898,396.528,288.81,-279.679,349.985,266.312,-83.7953,394.89,189.8,125.857,89.3779,865.021,113.825,127.974,671.36,99.208,129.08,460.186,112.349,183.74,246.702,46.3131,225.573,201.65,264.222,194.373,199.882
178,0,143.458,419.032,1146.94,167.965,142.244,1150.62,-56.6076,309.572,1213.34,-43.3785,205.08,1209.68,39.4131,473.656,866.81,-4.80894,449.194,673.08,-109.069,452.487,531.754,-205.917,396.853,290.875,-281.082,350.289,269.439,-86.8548,394.583,189.788,125.158,88.2323,864.553,112.33,126.867,670.947,96.9529,128.34,459.833,109.318,183.563,246.421,43.1831,225.428,201.573,261.103,194.259,199.698
179,0,143.843,417.51,1147.24,168.587,140.711,1150.27,-56.1963,307.865,1213.26,-42.8356,203.358,1209.62,41.9253,472.916,866.724,-0.790727,449.286,672.675,-106.476,452.683,532.352,-206.765,397.133,293.063,-282.28,350.488,272.767,-89.9248,394.26,189.816,124.53,87.149,864.068,110.853,125.773,670.532,94.7124,127.601,459.478,106.299,183.377,246.142,40.0629,225.268,201.501,257.995,194.146,199.516
180,0,144.121,416.024,1147.5,169.153,139.213,1149.9,-55.8669,306.156,1213.15,-42.3541,201.638,1209.55,44.4917,472.211,866.611,3.44345,449.427,672.24,-103.655,452.907,532.957,-207.423,397.36,295.382,-283.254,350.572,276.31,-92.9913,393.922,189.901,123.967,86.1272,863.57,109.384,124.694,670.119,92.4801,126.863,459.123,103.291,183.184,245.865,36.9536,225.095,201.433,254.899,194.032,199.338
181,0,144.289,414.575,1147.73,169.661,137.754,1149.51,-55.6201,304.448,1213.02,-41.9348,199.92,1209.46,47.1059,471.543,866.479,7.88884,449.613,671.786,-100.602,453.156,533.574,-207.874,397.529,297.838,-283.985,350.531,280.072,-96.0342,393.575,190.057,123.457,85.1649,863.059,107.913,123.631,669.71,90.2496,126.129,458.771,100.294,182.983,245.594,33.8557,224.911,201.369,251.815,193.919,199.164
182,0,144.346,413.165,1147.93,170.11,136.336,1149.1,-55.4564,302.742,1212.88,-41.5783,198.208,1209.35,49.7607,470.911,866.334,12.5383,449.84,671.323,-97.3137,453.426,534.21,-208.102,397.637,300.433,-284.454,350.357,284.053,-99.0266,393.224,190.305,122.989,84.2592,862.54,106.433,122.586,669.306,88.0145,125.4,458.422,97.3075,182.775,245.329,30.7695,224.718,201.308,248.744,193.808,198.996
183,0,144.292,411.796,1148.1,170.499,134.96,1148.67,-55.3755,301.042,1212.71,-41.2851,196.504,1209.23,52.4484,470.316,866.181,17.3825,450.103,670.863,-93.7908,453.712,534.873,-208.087,397.679,303.164,-284.646,350.047,288.242,-101.935,392.874,190.66,122.549,83.406,862.013,104.933,121.561,668.909,85.7684,124.678,458.078,94.3294,182.563,245.072,27.6949,224.517,201.248,245.685,193.698,198.835
184,0,144.128,410.469,1148.24,170.829,133.628,1148.23,-55.3769,299.349,1212.54,-41.0552,194.81,1209.09,55.1605,469.756,866.029,22.4094,450.398,670.417,-90.0355,454.008,535.567,-207.816,397.655,306.022,-284.544,349.599,292.62,-104.717,392.534,191.139,122.123,82.6008,861.481,103.405,120.558,668.52,83.5056,123.968,457.742,91.3586,182.347,244.824,24.6312,224.313,201.189,242.636,193.59,198.68
185,0,143.856,409.184,1148.36,171.098,132.342,1147.79,-55.4594,297.666,1212.35,-40.8884,193.128,1208.93,57.8883,469.232,865.884,27.6048,450.718,669.995,-86.0522,454.309,536.297,-207.271,397.564,308.997,-284.134,349.016,297.161,-107.326,392.212,191.76,121.694,81.8387,860.946,101.842,119.579,668.14,81.2205,123.27,457.415,88.3932,182.129,244.585,21.5775,224.107,201.13,239.598,193.484,198.533
186,0,143.479,407.944,1148.47,171.307,131.102,1147.33,-55.6215,295.996,1212.15,-40.7843,191.462,1208.77,60.6221,468.742,865.752,32.9522,451.058,669.609,-81.8483,454.61,537.065,-206.437,397.409,312.07,-283.404,348.302,301.826,-109.707,391.917,192.533,121.248,81.1146,860.411,100.237,118.626,667.771,78.9082,122.588,457.097,85.4315,181.911,244.356,18.5326,223.904,201.07,236.569,193.381,198.393
187,0,143.002,406.747,1148.55,171.456,129.909,1146.87,-55.8613,294.342,1211.95,-40.7422,189.815,1208.6,63.3524,468.285,865.641,38.433,451.413,669.269,-77.4332,454.905,537.875,-205.299,397.193,315.219,-282.342,347.469,306.57,-111.801,391.66,193.471,120.769,80.4234,859.878,98.5843,117.701,667.412,76.5648,121.924,456.789,82.4714,181.694,244.138,15.4951,223.704,201.007,233.546,193.28,198.26
188,0,142.428,405.593,1148.63,171.545,128.764,1146.41,-56.1763,292.707,1211.74,-40.7613,188.188,1208.42,66.0692,467.861,865.557,44.0267,451.776,668.986,-72.8188,455.187,538.726,-203.846,396.921,318.414,-280.939,346.528,311.338,-113.541,391.45,194.577,120.243,79.7606,859.35,96.8804,116.806,667.064,74.1868,121.28,456.493,79.5111,181.48,243.931,12.4633,223.512,200.941,230.528,193.182,198.134
189,0,141.764,404.483,1148.7,171.574,127.665,1145.95,-56.5639,291.093,1211.53,-40.8404,186.586,1208.23,68.7625,467.468,865.507,49.711,452.142,668.769,-68.0191,455.453,539.618,-202.063,396.599,321.624,-279.187,345.497,316.067,-114.863,391.298,195.852,119.659,79.1217,858.828,95.122,115.944,666.728,71.7717,120.661,456.21,76.5485,181.272,243.735,9.4354,223.33,200.872,227.514,193.086,198.014
190,0,141.016,403.416,1148.76,171.545,126.615,1145.49,-57.021,289.503,1211.32,-40.9781,185.011,1208.05,71.4224,467.105,865.495,55.4624,452.506,668.626,-63.0501,455.696,540.547,-199.939,396.236,324.81,-277.077,344.393,320.691,-115.696,391.215,197.293,119.006,78.5032,858.315,93.3077,115.115,666.403,69.3181,120.066,455.938,73.5817,181.07,243.55,6.40963,223.159,200.799,224.5,192.993,197.899
191,0,140.19,402.39,1148.83,171.457,125.611,1145.04,-57.5443,287.941,1211.11,-41.1728,183.465,1207.86,74.0392,466.769,865.527,61.2563,452.862,668.565,-57.9293,455.912,541.509,-197.465,395.842,327.934,-274.603,343.239,325.136,-115.974,391.21,198.889,118.275,77.902,857.813,91.4371,114.322,666.09,66.8252,119.499,455.68,70.609,180.876,243.376,3.38424,223.001,200.722,221.485,192.902,197.789
192,0,139.294,401.406,1148.9,171.312,124.654,1144.59,-58.1301,286.409,1210.91,-41.423,181.952,1207.67,76.6036,466.461,865.609,67.0673,453.205,668.592,-52.6756,456.096,542.498,-194.63,395.427,330.95,-271.758,342.058,329.327,-115.63,391.293,200.623,117.46,77.3158,857.325,89.5115,113.567,665.789,64.2934,118.962,455.435,67.6288,180.691,243.213,0.35756,222.858,200.64,218.466,192.812,197.684
193,0,138.336,400.461,1148.98,171.112,123.743,1144.15,-58.7747,284.91,1210.72,-41.7266,180.475,1207.48,79.1068,466.177,865.742,72.8696,453.531,668.713,-47.3088,456.247,543.506,-191.426,395.003,333.814,-268.538,340.872,333.189,-114.606,391.471,202.474,116.557,76.7432,856.851,87.5331,112.851,665.5,61.7238,118.456,455.203,64.6398,180.516,243.061,-2.67195,222.731,200.555,215.442,192.724,197.581
194,0,137.323,399.555,1149.07,170.857,122.879,1143.72,-59.4742,283.447,1210.54,-42.0816,179.035,1207.29,81.5406,465.917,865.932,78.6377,453.836,668.929,-41.8493,456.361,544.524,-187.847,394.581,336.48,-264.937,339.707,336.649,-112.846,391.752,204.415,115.565,76.1835,856.393,85.5056,112.175,665.223,59.1184,117.982,454.984,61.641,180.352,242.92,-5.70563,222.62,200.465,212.411,192.638,197.482
195,0,136.263,398.686,1149.17,170.549,122.059,1143.3,-60.2244,282.022,1210.37,-42.4858,177.636,1207.11,83.8978,465.68,866.18,84.3461,454.117,669.245,-36.3179,456.436,545.542,-183.886,394.174,338.903,-260.95,338.586,339.636,-110.306,392.141,206.415,114.484,75.6367,855.952,83.4334,111.542,664.957,56.4798,117.541,454.779,58.6316,180.2,242.79,-8.74463,222.525,200.372,209.372,192.554,197.383
196,0,135.163,397.854,1149.3,170.19,121.285,1142.89,-61.0212,280.638,1210.22,-42.9371,176.281,1206.93,86.1719,465.463,866.487,89.9704,454.369,669.659,-30.7351,456.473,546.548,-179.54,393.794,341.04,-256.574,337.531,342.087,-106.949,392.643,208.439,113.318,75.1037,855.529,81.3219,110.952,664.702,53.8116,117.135,454.587,55.6112,180.061,242.671,-11.7898,222.447,200.276,206.323,192.47,197.285
197,0,134.032,397.056,1149.45,169.782,120.555,1142.5,-61.8604,279.298,1210.08,-43.4329,174.97,1206.76,88.3575,465.266,866.856,95.487,454.59,670.173,-25.1207,456.471,547.532,-174.807,393.453,342.85,-251.803,336.565,343.945,-102.751,393.258,210.452,112.07,74.5858,855.124,79.1772,110.406,664.458,51.1176,116.765,454.408,52.5798,179.934,242.562,-14.8419,222.385,200.178,203.264,192.388,197.187
198,0,132.877,396.293,1149.62,169.327,119.869,1142.11,-62.7379,278.004,1209.95,-43.9709,173.708,1206.6,90.45,465.088,867.287,100.874,454.779,670.783,-19.4941,456.432,548.479,-169.684,393.162,344.297,-246.637,335.704,345.164,-97.6986,393.99,212.416,110.747,74.0848,854.738,77.0057,109.905,664.226,48.402,116.43,454.241,49.5376,179.819,242.464,-17.9013,222.338,200.078,200.193,192.307,197.087
199,0,131.703,395.563,1149.82,168.827,119.227,1141.75,-63.6495,276.758,1209.84,-44.5486,172.495,1206.44,92.446,464.928,867.777,106.111,454.934,671.486,-13.8731,456.358,549.379,-164.174,392.932,345.35,-241.071,334.964,345.709,-91.7922,394.835,214.295,109.355,73.6031,854.37,74.8142,109.45,664.004,45.6696,116.131,454.087,46.485,179.718,242.375,-20.9683,222.306,199.979,197.111,192.228,196.985
200,0,130.518,394.865,1150.05,168.284,118.627,1141.39,-64.5913,275.561,1209.75,-45.1636,171.333,1206.3,94.3431,464.786,868.328,111.179,455.053,672.278,-8.27422,456.252,550.217,-158.28,392.772,345.985,-235.106,334.36,345.557,-85.043,395.793,216.055,107.904,73.1432,854.019,72.6096,109.041,663.792,42.9251,115.868,453.945,43.4229,179.629,242.296,-24.0428,222.286,199.881,194.017,192.151,196.88
201,0,129.327,394.199,1150.32,167.7,118.071,1141.05,-65.5592,274.416,1209.68,-45.8132,170.225,1206.16,96.1401,464.66,868.935,116.063,455.136,673.152,-2.71229,456.118,550.982,-152.006,392.689,346.183,-228.741,333.899,344.696,-77.4745,396.858,217.667,106.402,72.7081,853.686,70.3986,108.678,663.591,40.1734,115.641,453.814,40.3521,179.553,242.227,-27.1247,222.277,199.785,190.911,192.075,196.771
202,0,128.135,393.564,1150.61,167.078,117.557,1140.72,-66.5495,273.324,1209.63,-46.4951,169.171,1206.03,97.8363,464.551,869.597,120.748,455.184,674.102,2.79973,455.96,551.663,-145.359,392.692,345.934,-221.979,333.588,343.128,-69.121,398.027,219.105,104.858,72.3007,853.369,68.1877,108.362,663.399,37.4191,115.45,453.695,37.2739,179.489,242.167,-30.2138,222.279,199.693,187.795,192.002,196.658
203,0,126.946,392.961,1150.93,166.42,117.086,1140.4,-67.5587,272.287,1209.59,-47.2067,168.173,1205.91,99.4323,464.457,870.311,125.222,455.195,675.121,8.25087,455.784,552.25,-138.349,392.783,345.237,-214.823,333.432,340.869,-60.027,399.291,220.35,103.28,71.9239,853.067,65.9827,108.092,663.216,34.6666,115.295,453.586,34.1894,179.437,242.115,-33.3097,222.289,199.607,184.669,191.931,196.54
204,0,125.765,392.388,1151.29,165.729,116.657,1140.09,-68.5832,271.305,1209.58,-47.9456,167.231,1205.8,100.929,464.38,871.072,129.478,455.171,676.2,13.6322,455.595,552.734,-130.986,392.967,344.096,-207.279,333.429,337.945,-50.245,400.644,221.388,101.678,71.5806,852.779,63.7892,107.868,663.043,31.9204,115.176,453.487,31.0999,179.396,242.071,-36.4119,222.307,199.526,181.534,191.862,196.417
205,0,124.594,391.848,1151.68,165.007,116.27,1139.8,-69.6198,270.379,1209.58,-48.7095,166.346,1205.7,102.329,464.319,871.875,133.507,455.112,677.33,18.9369,455.398,553.109,-123.283,393.246,342.526,-199.356,333.579,334.393,-39.8343,402.077,222.214,100.061,71.2735,852.504,61.6117,107.69,662.877,29.1839,115.091,453.398,28.0066,179.366,242.036,-39.5199,222.329,199.454,178.39,191.796,196.29
206,0,123.435,391.34,1152.09,164.256,115.926,1139.51,-70.6654,269.511,1209.59,-49.4959,165.52,1205.6,103.633,464.275,872.717,137.306,455.02,678.503,24.1602,455.199,553.367,-115.255,393.619,340.548,-191.063,333.876,330.263,-28.8594,403.578,222.829,98.4341,71.0053,852.239,59.454,107.557,662.72,26.4607,115.04,453.317,24.9107,179.346,242.008,-42.6332,222.356,199.39,175.238,191.733,196.158
207,0,122.29,390.865,1152.54,163.479,115.624,1139.23,-71.7173,268.7,1209.63,-50.3026,164.752,1205.52,104.845,464.246,873.591,140.873,454.896,679.708,29.2991,455.003,553.506,-106.917,394.084,338.189,-182.412,334.315,325.61,-17.3878,405.137,223.239,96.8057,70.778,851.983,57.3191,107.469,662.57,23.7533,115.024,453.246,21.8135,179.336,241.986,-45.7514,222.385,199.337,172.08,191.673,196.023
208,0,121.161,390.423,1153.01,162.677,115.365,1138.95,-72.7726,267.947,1209.68,-51.1275,164.043,1205.44,105.967,464.235,874.493,144.208,454.742,680.937,34.3526,454.815,553.525,-98.2877,394.639,335.485,-173.42,334.888,320.498,-5.48842,406.742,223.46,95.181,70.5939,851.736,55.2091,107.424,662.427,21.064,115.039,453.182,18.7158,179.335,241.971,-48.8739,222.416,199.294,168.917,191.616,195.885
209,0,120.046,390.017,1153.51,161.854,115.147,1138.69,-73.8291,267.253,1209.74,-51.9683,163.392,1205.37,107.002,464.24,875.414,147.314,454.559,682.18,39.3211,454.641,553.423,-89.3849,395.279,332.474,-164.102,335.586,314.997,6.77005,408.379,223.51,93.565,70.4543,851.494,53.1251,107.422,662.289,18.3944,115.087,453.126,15.6186,179.343,241.961,-52.0004,222.448,199.262,165.75,191.561,195.746
210,0,118.948,389.647,1154.03,161.011,114.972,1138.42,-74.8842,266.617,1209.82,-52.823,162.801,1205.31,107.953,464.263,876.351,150.195,454.349,683.428,44.2064,454.485,553.202,-80.2283,395.999,329.201,-154.479,336.401,309.178,19.3207,410.035,223.412,91.9615,70.3607,851.257,51.0673,107.461,662.157,15.7453,115.165,453.076,12.5225,179.359,241.956,-55.1306,222.48,199.242,162.579,191.51,195.606
211,0,117.865,389.315,1154.56,160.15,114.838,1138.16,-75.9359,266.039,1209.9,-53.6896,162.267,1205.25,108.822,464.302,877.295,152.856,454.115,684.673,49.0114,454.351,552.868,-70.8382,396.791,325.713,-144.57,337.321,303.116,32.0996,411.695,223.195,90.3733,70.314,851.023,49.0352,107.54,662.03,13.1173,115.273,453.033,9.42803,179.383,241.956,-58.2639,222.511,199.234,159.406,191.461,195.467
212,0,116.797,389.021,1155.11,159.274,114.746,1137.9,-76.9821,265.519,1210,-54.5662,161.792,1205.19,109.611,464.36,878.242,155.303,453.858,685.906,53.7399,454.241,552.424,-61.2353,397.649,322.059,-134.399,338.338,296.886,45.0471,413.345,222.888,88.8026,70.3146,850.79,47.0275,107.657,661.906,10.5102,115.41,452.996,6.33559,179.414,241.959,-61.4003,222.542,199.238,156.231,191.415,195.329
213,0,115.744,388.768,1155.67,158.383,114.694,1137.63,-78.0209,265.057,1210.1,-55.4508,161.374,1205.14,110.321,464.435,879.183,157.547,453.581,687.118,58.3959,454.159,551.88,-51.4406,398.563,318.289,-123.99,339.44,290.562,58.1082,414.97,222.521,87.2505,70.3627,850.558,45.0423,107.812,661.786,7.92329,115.574,452.964,3.24535,179.451,241.965,-64.5396,222.573,199.252,153.054,191.372,195.194
214,0,114.704,388.556,1156.24,157.481,114.683,1137.37,-79.0503,264.653,1210.21,-56.3416,161.014,1205.09,110.956,464.528,880.113,159.593,453.286,688.303,62.9837,454.105,551.242,-41.4755,399.525,314.454,-113.368,340.617,284.214,71.2335,416.554,222.126,85.7177,70.4581,850.324,43.077,108.002,661.668,5.35561,115.763,452.936,0.157332,179.495,241.973,-67.6815,222.603,199.277,149.877,191.331,195.063
215,0,113.679,388.386,1156.81,156.568,114.711,1137.1,-80.0687,264.306,1210.32,-57.2368,160.711,1205.05,111.514,464.639,881.025,161.453,452.976,689.454,67.5074,454.082,550.521,-31.3615,400.526,310.601,-102.558,341.858,277.909,84.3791,418.083,221.73,84.204,70.6003,850.088,41.1287,108.225,661.551,2.80573,115.976,452.911,-2.92857,179.545,241.982,-70.826,222.633,199.311,146.7,191.293,194.937
216,0,112.666,388.259,1157.37,155.646,114.777,1136.82,-81.0741,264.016,1210.44,-58.1346,160.464,1205,111.998,464.768,881.914,163.136,452.652,690.565,71.9706,454.089,549.726,-21.1203,401.554,306.778,-91.5874,343.154,271.709,97.5069,419.543,221.363,82.709,70.7884,849.847,39.1944,108.48,661.434,0.271959,116.211,452.89,-6.01259,179.6,241.991,-73.9732,222.665,199.354,143.523,191.257,194.816
217,0,111.667,388.177,1157.93,154.718,114.88,1136.54,-82.0648,263.782,1210.55,-59.0331,160.272,1204.95,112.406,464.915,882.772,164.65,452.317,691.628,76.376,454.127,548.868,-10.7735,402.602,303.027,-80.4831,344.495,265.671,110.584,420.92,221.048,81.2317,71.0212,849.602,37.2707,108.764,661.318,-2.24759,116.466,452.871,-9.0951,179.66,242,-77.1231,222.697,199.404,140.347,191.223,194.701
218,0,110.683,388.139,1158.48,153.783,115.019,1136.25,-83.0389,263.605,1210.66,-59.9307,160.136,1204.89,112.74,465.079,883.596,166.004,451.974,692.64,80.7253,454.193,547.958,-0.343146,403.659,299.387,-69.2721,345.868,259.846,123.583,422.203,220.806,79.7711,71.2972,849.351,35.3543,109.075,661.2,-4.75493,116.74,452.854,-12.1766,179.725,242.009,-80.2757,222.732,199.459,137.17,191.191,194.592
219,0,109.713,388.146,1159.01,152.845,115.192,1135.95,-83.9946,263.483,1210.76,-60.8254,160.055,1204.83,113,465.262,884.378,167.208,451.625,693.595,85.0186,454.287,547.005,10.1484,404.715,295.893,-57.9818,347.265,254.276,136.48,423.379,220.654,78.3258,71.6147,849.093,33.4421,109.41,661.081,-7.25214,117.029,452.837,-15.2575,179.793,242.015,-83.4312,222.768,199.519,133.993,191.161,194.49
220,0,108.759,388.197,1159.52,151.904,115.397,1135.64,-84.9298,263.417,1210.86,-61.7155,160.028,1204.77,113.184,465.462,885.115,168.269,451.272,694.488,89.2548,454.406,546.02,20.6782,405.762,292.575,-46.6395,348.675,248.998,149.255,424.438,220.604,76.8944,71.9715,848.828,31.531,109.768,660.96,-9.74127,117.331,452.821,-18.3387,179.866,242.02,-86.59,222.808,199.581,130.816,191.133,194.395
221,0,107.824,388.293,1160,150.962,115.632,1135.32,-85.8425,263.406,1210.95,-62.5991,160.055,1204.7,113.294,465.679,885.802,169.193,450.919,695.316,93.4305,454.547,545.013,31.2227,406.79,289.456,-35.2728,350.086,244.041,161.891,425.373,220.665,75.4757,72.3655,848.556,29.6184,110.146,660.836,-12.2243,117.644,452.804,-21.4206,179.94,242.022,-89.7524,222.851,199.645,127.637,191.106,194.306
222,0,106.911,388.432,1160.46,150.02,115.895,1134.99,-86.7305,263.451,1211.03,-63.4741,160.136,1204.61,113.33,465.914,886.435,169.989,450.567,696.075,97.5409,454.707,543.99,41.7571,407.79,286.557,-23.9098,351.49,239.428,174.374,426.175,220.841,74.0683,72.7943,848.275,27.7021,110.54,660.708,-14.7031,117.965,452.786,-24.5041,180.017,242.022,-92.9186,222.897,199.708,124.457,191.081,194.224
223,0,106.021,388.614,1160.88,149.079,116.183,1134.64,-87.5913,263.55,1211.09,-64.3387,160.27,1204.52,113.291,466.165,887.009,170.659,450.219,696.761,101.579,454.884,542.961,52.2557,408.756,283.889,-12.579,352.874,235.173,186.689,426.841,221.132,72.671,73.2551,847.986,25.7802,110.949,660.576,-17.1793,118.291,452.765,-27.59,180.096,242.018,-96.0894,222.945,199.769,121.274,191.055,194.148
224,0,105.161,388.838,1161.27,148.142,116.494,1134.28,-88.4227,263.705,1211.14,-65.1908,160.458,1204.41,113.181,466.434,887.522,171.209,449.878,697.372,105.536,455.073,541.929,62.691,409.68,281.461,-1.31006,354.23,231.286,198.821,427.365,221.532,71.2827,73.7452,847.689,23.8517,111.369,660.439,-19.6545,118.619,452.741,-30.679,180.174,242.011,-99.265,222.996,199.828,118.087,191.029,194.077
225,0,104.333,389.101,1161.62,147.21,116.826,1133.91,-89.2218,263.915,1211.17,-66.0281,160.699,1204.29,113,466.719,887.972,171.643,449.546,697.903,109.4,455.27,540.901,73.0337,410.556,279.274,9.8664,355.548,227.767,210.755,427.747,222.035,69.9025,74.2616,847.384,21.9157,111.798,660.297,-22.1298,118.948,452.714,-33.7721,180.252,242,-102.446,223.048,199.883,114.895,191.002,194.011
226,0,103.543,389.401,1161.92,146.285,117.176,1133.53,-89.9861,264.18,1211.18,-66.8485,160.993,1204.16,112.752,467.02,888.355,171.961,449.226,698.353,113.159,455.473,539.879,83.2528,411.378,277.326,20.918,356.817,224.614,222.474,427.987,222.629,68.5297,74.8013,847.071,19.9722,112.234,660.149,-24.6064,119.273,452.683,-36.8701,180.329,241.985,-105.634,223.101,199.933,111.696,190.973,193.95
227,0,102.797,389.738,1162.19,145.368,117.541,1133.13,-90.7127,264.501,1211.17,-67.6497,161.341,1204.01,112.439,467.337,888.67,172.166,448.92,698.718,116.798,455.677,538.865,93.3151,412.143,275.61,31.8106,358.029,221.816,233.958,428.085,223.301,67.1635,75.3609,846.75,18.0216,112.674,659.995,-27.0849,119.593,452.647,-39.9737,180.403,241.967,-108.829,223.152,199.977,108.491,190.942,193.892
228,0,102.1,390.107,1162.4,144.461,117.919,1132.72,-91.3984,264.878,1211.14,-68.4292,161.742,1203.84,112.068,467.669,888.917,172.259,448.63,698.997,120.302,455.88,537.859,103.185,412.845,274.114,42.5078,359.177,219.359,245.183,428.047,224.033,65.8034,75.9372,846.423,16.065,113.115,659.835,-29.566,119.905,452.605,-43.084,180.473,241.945,-112.031,223.201,200.015,105.276,190.906,193.838
229,0,101.459,390.507,1162.57,143.566,118.307,1132.3,-92.0404,265.312,1211.08,-69.1845,162.197,1203.65,111.642,468.015,889.093,172.238,448.359,699.187,123.652,456.077,536.862,112.826,413.483,272.821,52.9709,360.253,217.225,256.122,427.876,224.81,64.4491,76.527,846.088,14.104,113.556,659.667,-32.0499,120.206,452.558,-46.2017,180.54,241.92,-115.242,223.247,200.046,102.051,190.865,193.786
230,0,100.88,390.935,1162.69,142.686,118.704,1131.86,-92.6354,265.801,1211,-69.9131,162.707,1203.45,111.169,468.375,889.2,172.105,448.109,699.286,126.831,456.267,535.869,122.197,414.055,271.714,63.1588,361.25,215.389,266.743,427.582,225.61,63.1002,77.1267,845.748,12.1406,113.995,659.492,-34.5365,120.496,452.504,-49.3275,180.601,241.89,-118.463,223.286,200.07,98.8151,190.819,193.735
231,0,100.369,391.388,1162.76,141.822,119.106,1131.41,-93.1803,266.348,1210.9,-70.6124,163.27,1203.22,110.657,468.748,889.237,171.858,447.882,699.293,129.819,456.446,534.88,131.258,414.56,270.772,73.0284,362.164,213.826,277.012,427.171,226.414,61.7564,77.7332,845.402,10.1773,114.431,659.309,-37.0257,120.773,452.444,-52.4624,180.656,241.857,-121.694,223.318,200.087,95.5661,190.765,193.686
232,0,99.9341,391.862,1162.78,140.977,119.513,1130.95,-93.6718,266.953,1210.77,-71.2795,163.889,1202.98,110.113,469.133,889.204,171.496,447.68,699.206,132.598,456.613,533.889,139.968,414.998,269.97,82.5343,362.991,212.507,286.889,426.656,227.201,60.4177,78.343,845.051,8.21726,114.861,659.118,-39.5171,121.035,452.377,-55.6069,180.704,241.821,-124.936,223.342,200.097,92.3032,190.704,193.636
233,0,99.5807,392.356,1162.75,140.153,119.922,1130.49,-94.1069,267.615,1210.62,-71.9119,164.562,1202.71,109.547,469.529,889.104,171.019,447.505,699.026,135.149,456.765,532.894,148.282,415.369,269.285,91.6299,363.729,211.402,296.332,426.048,227.949,59.0839,78.9529,844.696,6.26379,115.286,658.918,-42.0099,121.284,452.304,-58.7617,180.746,241.781,-128.19,223.356,200.1,89.0254,190.634,193.586
234,0,99.3152,392.866,1162.68,139.353,120.332,1130.01,-94.4824,268.335,1210.44,-72.5067,165.291,1202.42,108.967,469.934,888.938,170.425,447.359,698.751,137.453,456.904,531.888,156.159,415.676,268.691,100.268,364.375,210.479,305.296,425.36,228.638,57.7549,79.56,844.337,4.32065,115.706,658.71,-44.5033,121.518,452.223,-61.9273,180.782,241.738,-131.457,223.359,200.096,85.7319,190.554,193.534
235,0,99.1434,393.39,1162.56,138.58,120.743,1129.53,-94.7954,269.113,1210.24,-73.0611,166.075,1202.11,108.385,470.347,888.708,169.715,447.242,698.383,139.495,457.027,530.869,163.556,415.92,268.163,108.4,364.93,209.706,313.736,424.606,229.247,56.4311,80.1614,843.976,2.39192,116.12,658.492,-46.9959,121.74,452.137,-65.1042,180.81,241.692,-134.737,223.351,200.087,82.4219,190.465,193.48
236,0,99.0707,393.925,1162.39,137.836,121.153,1129.04,-95.043,269.95,1210.01,-73.5723,166.915,1201.78,107.811,470.767,888.416,168.889,447.158,697.922,141.257,457.134,529.83,170.434,416.104,267.677,115.981,365.395,209.05,321.606,423.802,229.756,55.1125,80.7546,843.612,0.481964,116.529,658.266,-49.4863,121.95,452.045,-68.2928,180.833,241.643,-138.031,223.332,200.073,79.095,190.365,193.424
237,0,99.1019,394.469,1162.19,137.124,121.563,1128.55,-95.2226,270.845,1209.76,-74.0377,167.81,1201.44,107.255,471.191,888.066,167.947,447.106,697.37,142.728,457.228,528.768,176.755,416.232,267.209,122.966,365.774,208.481,328.862,422.964,230.147,53.7996,81.3373,843.248,-1.4046,116.936,658.03,-51.9728,122.15,451.948,-71.4931,180.851,241.593,-141.338,223.301,200.055,75.7509,190.256,193.364
238,0,99.2409,395.019,1161.94,136.447,121.973,1128.05,-95.3318,271.799,1209.49,-74.4545,168.761,1201.07,106.727,471.619,887.66,166.891,447.088,696.731,143.896,457.309,527.679,182.486,416.307,266.738,129.315,366.069,207.97,335.465,422.106,230.405,52.4933,81.9079,842.883,-3.26291,117.341,657.786,-54.4533,122.344,451.847,-74.7053,180.864,241.542,-144.66,223.262,200.035,72.3895,190.137,193.301
239,0,99.4912,395.575,1161.66,135.809,122.384,1127.55,-95.3686,272.811,1209.19,-74.8201,169.767,1200.69,106.237,472.048,887.204,165.724,447.106,696.007,144.754,457.379,526.561,187.599,416.333,266.243,134.993,366.286,207.491,341.379,421.245,230.513,51.1946,82.4651,842.52,-5.08792,117.747,657.533,-56.9255,122.535,451.744,-77.9291,180.875,241.492,-147.996,223.214,200.015,69.0107,190.009,193.233
240,0,99.8549,396.135,1161.35,135.212,122.796,1127.06,-95.3311,273.88,1208.88,-75.1321,170.828,1200.29,105.794,472.478,886.7,164.45,447.159,695.204,145.295,457.441,525.412,192.071,416.315,265.71,139.969,366.43,207.019,346.576,420.395,230.46,49.9051,83.0082,842.158,-6.87438,118.156,657.272,-59.3866,122.726,451.639,-81.1642,180.886,241.443,-151.345,223.16,199.997,65.6151,189.873,193.162
241,0,100.334,396.698,1161.01,134.658,123.211,1126.57,-95.2178,275.007,1208.56,-75.388,171.943,1199.88,105.407,472.907,886.153,163.072,447.249,694.327,145.519,457.497,524.232,195.885,416.256,265.123,144.222,366.508,206.536,351.034,419.57,230.237,48.627,83.5372,841.799,-8.61687,118.573,657.004,-61.8335,122.921,451.535,-84.4097,180.897,241.397,-154.707,223.103,199.983,62.203,189.73,193.086
242,0,100.928,397.265,1160.65,134.152,123.632,1126.08,-95.0278,276.19,1208.22,-75.5857,173.112,1199.46,105.082,473.334,885.568,161.597,447.377,693.382,145.428,457.552,523.02,199.033,416.161,264.473,147.739,366.527,206.025,354.744,418.784,229.838,47.363,84.053,841.445,-10.3098,119,656.729,-64.2629,123.126,451.433,-87.6648,180.912,241.357,-158.082,223.046,199.978,58.7751,189.583,193.005
243,0,101.637,397.834,1160.27,133.695,124.061,1125.6,-94.7604,277.428,1207.87,-75.7231,174.333,1199.03,104.825,473.76,884.95,160.031,447.542,692.377,145.026,457.608,521.78,201.515,416.036,263.753,150.516,366.495,205.476,357.704,418.045,229.259,46.1169,84.557,841.096,-11.9476,119.442,656.45,-66.6707,123.344,451.336,-90.9282,180.932,241.325,-161.468,222.992,199.985,55.3323,189.432,192.92
244,0,102.46,398.407,1159.88,133.291,124.5,1125.13,-94.4153,278.72,1207.51,-75.7985,175.606,1198.59,104.64,474.182,884.305,158.382,447.746,691.319,144.324,457.671,520.513,203.337,415.883,262.958,152.557,366.419,204.881,359.924,417.365,228.502,44.8931,85.0515,840.755,-13.5243,119.903,656.167,-69.0529,123.581,451.247,-94.1981,180.961,241.305,-164.864,222.944,200.008,51.8756,189.279,192.83
245,0,103.393,398.985,1159.48,132.942,124.953,1124.67,-93.9929,280.065,1207.15,-75.8104,176.928,1198.15,104.531,474.603,883.637,156.659,447.989,690.218,143.334,457.744,519.225,204.514,415.707,262.09,153.878,366.306,204.238,361.427,416.749,227.572,43.697,85.5397,840.421,-15.0343,120.386,655.882,-71.4046,123.84,451.168,-97.4726,180.999,241.299,-168.268,222.906,200.054,48.4062,189.127,192.737
246,0,104.433,399.57,1159.07,132.65,125.423,1124.23,-93.4938,281.46,1206.79,-75.7573,178.3,1197.71,104.498,475.023,882.953,154.87,448.271,689.082,142.071,457.833,517.922,205.071,415.512,261.152,154.506,366.165,203.549,362.242,416.202,226.476,42.535,86.0257,840.096,-16.4715,120.896,655.597,-73.721,124.127,451.102,-100.749,181.049,241.311,-171.679,222.881,200.126,44.9255,188.978,192.639
247,0,105.574,400.164,1158.67,132.418,125.913,1123.8,-92.9192,282.905,1206.44,-75.6384,179.718,1197.27,104.54,475.444,882.258,153.026,448.592,687.923,140.556,457.942,516.609,205.038,415.302,260.15,154.476,366.001,202.82,362.413,415.728,225.229,41.4145,86.5141,839.781,-17.8302,121.437,655.314,-75.9967,124.445,451.052,-104.025,181.114,241.345,-175.093,222.872,200.232,41.435,188.833,192.538
248,0,106.813,400.769,1158.27,132.248,126.429,1123.39,-92.2708,284.397,1206.09,-75.453,181.181,1196.84,104.655,475.867,881.559,151.139,448.952,686.749,138.81,458.076,515.295,204.452,415.081,259.092,153.83,365.823,202.06,361.989,415.328,223.845,40.3438,87.0104,839.477,-19.1047,122.013,655.037,-78.2262,124.798,451.022,-107.296,181.193,241.406,-178.509,222.881,200.378,37.9364,188.694,192.434
249,0,108.141,401.389,1157.88,132.142,126.973,1123,-91.5506,285.933,1205.75,-75.2006,182.686,1196.41,104.839,476.296,880.86,149.218,449.352,685.572,136.857,458.239,513.988,203.358,414.852,257.992,152.62,365.635,201.282,361.026,414.999,222.344,39.3322,87.5208,839.184,-20.2894,122.627,654.767,-80.4036,125.189,451.015,-110.56,181.289,241.498,-181.923,222.911,200.572,34.4315,188.564,192.327
250,0,109.551,402.027,1157.51,132.101,127.55,1122.63,-90.7612,287.512,1205.42,-74.8814,184.232,1196.01,105.087,476.733,880.167,147.275,449.791,684.401,134.724,458.436,512.697,201.803,414.618,256.861,150.903,365.442,200.498,359.587,414.739,220.749,38.3896,88.0517,838.904,-21.3791,123.283,654.507,-82.5232,125.619,451.034,-113.812,181.402,241.626,-185.332,222.963,200.821,30.9224,188.444,192.219
251,0,111.035,402.687,1157.15,132.126,128.165,1122.29,-89.9057,289.131,1205.11,-74.4955,185.816,1195.61,105.389,477.183,879.487,145.321,450.27,683.248,132.436,458.67,511.432,199.838,414.382,255.715,148.74,365.251,199.724,357.736,414.544,219.083,37.5263,88.6102,838.636,-22.3689,123.984,654.261,-84.5789,126.091,451.083,-117.047,181.532,241.795,-188.733,223.036,201.132,27.4112,188.335,192.11
252,0,112.584,403.374,1156.82,132.217,128.82,1121.97,-88.9873,290.786,1204.83,-74.0437,187.436,1195.24,105.739,477.65,878.823,143.367,450.788,682.122,130.022,458.945,510.201,197.518,414.149,254.568,146.194,365.063,198.976,355.538,414.408,217.374,36.7533,89.2034,838.38,-23.2542,124.731,654.032,-86.5652,126.604,451.166,-120.262,181.678,242.01,-192.122,223.129,201.512,23.9004,188.237,192.001
253,0,114.189,404.091,1156.51,132.377,129.52,1121.69,-88.0099,292.476,1204.57,-73.5271,189.088,1194.9,106.126,478.138,878.182,141.424,451.345,681.033,127.511,459.264,509.013,194.895,413.919,253.436,143.329,364.883,198.267,353.057,414.324,215.646,36.0812,89.8384,838.137,-24.0313,125.526,653.822,-88.4764,127.159,451.285,-123.451,181.838,242.276,-195.497,223.241,201.97,20.3923,188.153,191.894
254,0,115.841,404.843,1156.22,132.604,130.27,1121.43,-86.9776,294.197,1204.33,-72.9471,190.77,1194.58,106.538,478.654,877.566,139.502,451.94,679.989,124.928,459.628,507.878,192.023,413.697,252.334,140.209,364.713,197.612,350.353,414.285,213.928,35.5206,90.522,837.907,-24.6968,126.37,653.635,-90.3074,127.754,451.443,-126.609,182.011,242.596,-198.851,223.368,202.511,16.8897,188.08,191.789
255,0,117.528,405.635,1155.97,132.898,131.072,1121.21,-85.8948,295.946,1204.13,-72.3054,192.48,1194.29,106.966,479.2,876.98,137.609,452.573,678.998,122.299,460.04,506.802,188.954,413.484,251.275,136.893,364.555,197.021,347.481,414.284,212.244,35.0815,91.2607,837.689,-25.2484,127.263,653.474,-92.0536,128.386,451.643,-129.732,182.194,242.976,-202.183,223.508,203.142,13.3953,188.021,191.688
256,0,119.24,406.472,1155.75,133.259,131.93,1121.02,-84.7661,297.72,1203.97,-71.6043,194.214,1194.04,107.396,479.784,876.427,135.754,453.243,678.067,119.651,460.5,505.794,185.734,413.283,250.271,133.435,364.41,196.502,344.491,414.313,210.619,34.7726,92.0604,837.484,-25.6843,128.204,653.341,-93.7109,129.054,451.887,-132.814,182.384,243.42,-205.488,223.653,203.868,9.91207,187.974,191.591
257,0,120.969,407.357,1155.55,133.686,132.846,1120.86,-83.5966,299.517,1203.83,-70.8462,195.969,1193.82,107.816,480.409,875.911,133.941,453.95,677.201,117.003,461.008,504.859,182.408,413.095,249.334,129.887,364.279,196.063,341.423,414.364,209.073,34.6017,92.9262,837.291,-26.0039,129.192,653.24,-95.2761,129.754,452.177,-135.851,182.577,243.93,-208.762,223.8,204.694,6.44298,187.939,191.501
258,0,122.703,408.295,1155.39,134.177,133.824,1120.74,-82.3913,301.332,1203.74,-70.034,197.744,1193.65,108.215,481.08,875.432,132.178,454.692,676.406,114.376,461.562,504.001,179.015,412.922,248.472,126.29,364.162,195.705,338.313,414.432,207.627,34.5747,93.862,837.11,-26.2074,130.225,653.171,-96.7467,130.481,452.515,-138.838,182.768,244.509,-212.002,223.941,205.623,2.99112,187.914,191.419
259,0,124.432,409.289,1155.26,134.73,134.865,1120.66,-81.1555,303.164,1203.69,-69.1708,199.534,1193.51,108.58,481.802,874.993,130.468,455.468,675.684,111.786,462.161,503.225,175.589,412.766,247.69,122.683,364.059,195.428,335.186,414.508,206.293,34.6958,94.8708,836.943,-26.2959,131.3,653.139,-98.1212,131.23,452.902,-141.772,182.954,245.159,-215.205,224.069,206.657,-0.44041,187.898,191.345
260,0,126.148,410.344,1155.15,135.343,135.971,1120.62,-79.8946,305.009,1203.68,-68.2603,201.338,1193.42,108.901,482.578,874.594,128.812,456.277,675.037,109.248,462.802,502.531,172.157,412.628,246.992,119.092,363.97,195.229,332.062,414.589,205.082,34.967,95.9543,836.788,-26.2716,132.414,653.143,-99.3991,131.997,453.338,-144.649,183.129,245.882,-218.367,224.179,207.796,-3.84851,187.89,191.28
261,0,127.84,411.462,1155.07,136.014,137.143,1120.62,-78.614,306.864,1203.71,-67.306,203.152,1193.37,109.166,483.411,874.235,127.211,457.118,674.465,106.77,463.481,501.921,168.743,412.507,246.38,115.542,363.894,195.103,328.953,414.668,204.003,35.3879,97.1129,836.648,-26.1376,133.564,653.184,-100.581,132.776,453.823,-147.467,183.29,246.676,-221.487,224.263,209.04,-7.23014,187.889,191.226
262,0,129.501,412.646,1155.01,136.739,138.381,1120.65,-77.3191,308.727,1203.78,-66.3122,204.975,1193.37,109.367,484.303,873.916,125.664,457.988,673.969,104.36,464.195,501.394,165.363,412.404,245.853,112.047,363.829,195.041,325.867,414.743,203.056,35.956,98.3455,836.524,-25.8976,134.743,653.264,-101.668,133.561,454.356,-150.222,183.431,247.543,-224.562,224.314,210.387,-10.5823,187.893,191.183
263,0,131.123,413.898,1154.97,137.515,139.685,1120.73,-76.0155,310.595,1203.9,-65.2831,206.804,1193.42,109.494,485.255,873.634,124.169,458.886,673.545,102.022,464.938,500.946,162.029,412.318,245.406,108.617,363.775,195.035,322.806,414.811,202.242,36.6662,99.6498,836.416,-25.5564,135.949,653.382,-102.662,134.347,454.937,-152.913,183.549,248.48,-227.59,224.327,211.834,-13.9023,187.901,191.15
264,0,132.698,415.218,1154.94,138.338,141.056,1120.84,-74.7085,312.466,1204.06,-64.2232,208.637,1193.51,109.542,486.269,873.389,122.722,459.809,673.191,99.7561,465.705,500.574,158.75,412.249,245.036,105.256,363.73,195.075,319.769,414.869,201.554,37.5112,101.022,836.326,-25.1189,137.175,653.537,-103.566,135.128,455.562,-155.539,183.639,249.485,-230.57,224.297,213.375,-17.1876,187.91,191.129
265,0,134.22,416.608,1154.93,139.204,142.491,1120.99,-73.4034,314.337,1204.26,-63.1373,210.471,1193.66,109.504,487.342,873.178,121.318,460.757,672.903,97.5609,466.492,500.275,155.528,412.195,244.736,101.964,363.691,195.148,316.751,414.917,200.985,38.4816,102.457,836.256,-24.5908,138.417,653.728,-104.385,135.899,456.23,-158.101,183.698,250.554,-233.501,224.218,215.005,-20.4358,187.919,191.119
266,0,135.683,418.068,1154.93,140.108,143.989,1121.18,-72.1054,316.207,1204.5,-62.0301,212.305,1193.84,109.377,488.475,872.998,119.951,461.726,672.676,95.432,467.291,500.041,152.363,412.155,244.498,98.7369,363.658,195.246,313.747,414.955,200.524,39.5662,103.95,836.209,-23.9777,139.668,653.953,-105.123,136.655,456.939,-160.597,183.723,251.684,-236.382,224.089,216.718,-23.6451,187.928,191.119
267,0,137.083,419.597,1154.93,141.046,145.549,1121.41,-70.8196,318.074,1204.78,-60.9068,214.138,1194.08,109.157,489.663,872.846,118.615,462.714,672.503,93.363,468.098,499.866,149.251,412.127,244.314,95.5676,363.628,195.357,310.752,414.982,200.16,40.7522,105.492,836.187,-23.2851,140.924,654.209,-105.783,137.391,457.683,-163.03,183.712,252.871,-239.215,223.906,218.507,-26.8139,187.934,191.127
268,0,138.416,421.192,1154.94,142.014,147.166,1121.67,-69.5509,319.935,1205.09,-59.7725,215.967,1194.35,108.843,490.904,872.719,117.301,463.719,672.379,91.3463,468.906,499.743,146.189,412.108,244.174,92.448,363.6,195.473,307.759,415,199.878,42.0258,107.075,836.191,-22.5183,142.178,654.493,-106.372,138.105,458.461,-165.4,183.663,254.11,-241.997,223.668,220.364,-29.9414,187.938,191.143
269,0,139.678,422.852,1154.93,143.005,148.839,1121.97,-68.3041,321.791,1205.44,-58.6323,217.791,1194.67,108.436,492.194,872.612,116.004,464.739,672.296,89.3732,469.712,499.666,143.169,412.098,244.069,89.3686,363.573,195.585,304.762,415.01,199.664,43.3722,108.692,836.224,-21.682,143.424,654.8,-106.892,138.791,459.268,-167.71,183.575,255.395,-244.731,223.376,222.28,-33.0273,187.937,191.165
270,0,140.867,424.574,1154.92,144.015,150.564,1122.3,-67.0835,323.638,1205.81,-57.4916,219.61,1195.03,107.937,493.527,872.521,114.716,465.77,672.248,87.4344,470.51,499.625,140.183,412.093,243.991,86.3193,363.544,195.685,301.757,415.013,199.504,44.7766,110.333,836.289,-20.7799,144.658,655.128,-107.349,139.448,460.1,-169.96,183.449,256.721,-247.415,223.031,224.25,-36.0718,187.93,191.19
271,0,141.981,426.355,1154.9,145.037,152.337,1122.66,-65.8937,325.477,1206.22,-56.3555,221.421,1195.43,107.348,494.898,872.444,113.43,466.811,672.228,85.5206,471.297,499.614,137.224,412.093,243.931,83.2904,363.513,195.77,298.74,415.01,199.386,46.2244,111.988,836.386,-19.8149,145.874,655.471,-107.746,140.073,460.952,-172.155,183.283,258.084,-250.051,222.633,226.266,-39.076,187.919,191.217
272,0,143.02,428.189,1154.87,146.067,154.154,1123.04,-64.7385,327.306,1206.65,-55.2295,223.225,1195.86,106.674,496.301,872.375,112.14,467.858,672.229,83.6229,472.068,499.625,134.284,412.095,243.881,80.2729,363.48,195.835,295.709,415.003,199.295,47.7017,113.648,836.519,-18.7884,147.066,655.823,-108.086,140.664,461.821,-174.295,183.081,259.478,-252.639,222.187,228.322,-42.042,187.901,191.242
273,0,143.982,430.073,1154.81,147.098,156.01,1123.45,-63.6219,329.124,1207.1,-54.1186,225.021,1196.32,105.92,497.73,872.312,110.841,468.91,672.243,81.7332,472.821,499.651,131.355,412.099,243.835,77.2585,363.443,195.877,292.662,414.993,199.223,49.1956,115.303,836.688,-17.7004,148.231,656.18,-108.369,141.22,462.702,-176.383,182.843,260.901,-255.178,221.697,230.414,-44.9723,187.878,191.262
274,0,144.868,432.001,1154.74,148.124,157.901,1123.89,-62.5476,330.932,1207.57,-53.0281,226.808,1196.8,105.092,499.179,872.25,109.529,469.965,672.265,79.8444,473.554,499.685,128.43,412.103,243.787,74.2402,363.403,195.895,289.598,414.98,199.159,50.6949,116.944,836.894,-16.5493,149.363,656.535,-108.598,141.74,463.593,-178.42,182.572,262.348,-257.669,221.166,232.539,-47.8707,187.848,191.275
275,0,145.678,433.967,1154.64,149.141,159.822,1124.35,-61.5188,332.729,1208.05,-51.963,228.585,1197.32,104.196,500.64,872.186,108.199,471.019,672.289,77.9511,474.267,499.723,125.505,412.107,243.732,71.2124,363.36,195.891,286.519,414.965,199.095,52.1904,118.562,837.138,-15.3318,150.458,656.884,-108.77,142.225,464.489,-180.408,182.27,263.817,-260.108,220.6,234.696,-50.7418,187.813,191.278
276,0,146.413,435.967,1154.52,150.141,161.768,1124.82,-60.5387,334.513,1208.54,-50.9283,230.352,1197.85,103.241,502.108,872.117,106.852,472.071,672.31,76.0492,474.957,499.758,122.573,412.111,243.667,68.1709,363.314,195.864,283.425,414.949,199.027,53.6749,120.15,837.419,-14.0429,151.513,657.221,-108.884,142.674,465.388,-182.348,181.943,265.308,-262.496,220.006,236.887,-53.591,187.772,191.268
277,0,147.075,437.993,1154.38,151.118,163.735,1125.31,-59.6102,336.287,1209.04,-49.9287,232.11,1198.39,102.233,503.576,872.041,105.486,473.118,672.322,74.1365,475.627,499.786,119.633,412.114,243.589,65.1126,363.266,195.817,280.317,414.933,198.95,55.1436,121.699,837.736,-12.6761,152.524,657.539,-108.935,143.089,466.287,-184.24,181.593,266.821,-264.829,219.39,239.114,-56.4244,187.726,191.243
278,0,147.665,440.04,1154.21,152.068,165.717,1125.81,-58.736,338.048,1209.54,-48.9691,233.858,1198.95,101.181,505.039,871.954,104.102,474.16,672.323,72.2123,476.277,499.804,116.682,412.117,243.496,62.0359,363.217,195.752,277.198,414.914,198.861,56.5944,123.205,838.087,-11.223,153.488,657.835,-108.92,143.47,467.185,-186.083,181.226,268.358,-267.104,218.76,241.384,-59.249,187.676,191.201
279,0,148.184,442.101,1154.01,152.985,167.709,1126.32,-57.9183,339.797,1210.04,-48.0537,235.595,1199.51,100.094,506.491,871.857,102.702,475.194,672.308,70.278,476.908,499.809,113.718,412.121,243.388,58.9402,363.167,195.673,274.07,414.895,198.76,58.0276,124.66,838.471,-9.67405,154.402,658.102,-108.831,143.819,468.082,-187.876,180.846,269.922,-269.317,218.125,243.704,-62.072,187.622,191.142
280,0,148.634,444.171,1153.79,153.863,169.707,1126.84,-57.1594,341.535,1210.54,-47.1868,237.323,1200.08,98.9799,507.928,871.745,101.291,476.219,672.275,68.3361,477.522,499.799,110.743,412.126,243.266,55.8259,363.118,195.583,270.934,414.873,198.646,59.4456,126.061,838.885,-8.01841,155.264,658.337,-108.662,144.138,468.977,-189.617,180.46,271.519,-271.462,217.495,246.085,-64.901,187.566,191.064
281,0,149.017,446.243,1153.55,154.696,171.706,1127.36,-56.4611,343.261,1211.03,-46.3724,239.04,1200.65,97.847,509.345,871.62,99.8714,477.234,672.222,66.3907,478.122,499.772,107.757,412.133,243.13,52.6944,363.069,195.486,267.792,414.849,198.521,60.8536,127.404,839.325,-6.24436,156.073,658.535,-108.402,144.428,469.87,-191.303,180.073,273.154,-273.534,216.878,248.54,-67.7435,187.509,190.971
282,0,149.334,448.312,1153.28,155.48,173.702,1127.88,-55.8251,344.976,1211.51,-45.6144,240.747,1201.21,96.703,510.74,871.481,98.4496,478.238,672.149,64.4469,478.71,499.727,104.761,412.143,242.981,49.5474,363.023,195.384,264.647,414.823,198.385,62.2583,128.688,839.787,-4.33958,156.827,658.695,-108.044,144.691,470.765,-192.93,179.691,274.835,-275.526,216.286,251.081,-70.6065,187.452,190.864
283,0,149.587,450.371,1152.99,156.21,175.689,1128.39,-55.2529,346.679,1211.97,-44.9161,242.444,1201.76,95.5555,512.11,871.326,97.0308,479.23,672.054,62.5107,479.289,499.665,101.76,412.156,242.823,46.3874,362.979,195.281,261.499,414.793,198.242,63.6681,129.91,840.268,-2.29153,157.526,658.812,-107.577,144.929,471.662,-194.493,179.322,276.572,-277.43,215.73,253.725,-73.4962,187.395,190.748
284,0,149.776,452.417,1152.68,156.881,177.665,1128.9,-54.7455,348.372,1212.42,-44.2808,244.131,1202.3,94.4108,513.453,871.157,95.621,480.209,671.938,60.5884,479.861,499.586,98.755,412.174,242.656,43.217,362.938,195.179,258.35,414.76,198.092,65.0927,131.071,840.761,-0.0878223,158.169,658.886,-106.991,145.145,472.564,-195.987,178.972,278.374,-279.239,215.223,256.487,-76.4171,187.339,190.63
285,0,149.904,454.443,1152.35,157.489,179.624,1129.41,-54.304,350.053,1212.86,-43.7115,245.808,1202.83,93.2749,514.768,870.975,94.226,481.176,671.802,58.6866,480.429,499.49,95.75,412.196,242.483,40.0392,362.901,195.082,255.202,414.723,197.939,66.5424,132.171,841.263,2.28339,158.756,658.916,-106.275,145.342,473.476,-197.405,178.648,280.251,-280.942,214.776,259.381,-79.372,187.285,190.518
286,0,149.972,456.445,1152.01,158.03,181.564,1129.9,-53.929,351.724,1213.27,-43.2107,247.475,1203.34,92.1524,516.054,870.779,92.8511,482.129,671.645,56.8114,480.996,499.378,92.7483,412.224,242.306,36.857,362.867,194.991,252.055,414.682,197.783,68.0278,133.212,841.768,4.83301,159.289,658.903,-105.419,145.52,474.401,-198.741,178.356,282.215,-282.532,214.401,262.424,-82.3612,187.233,190.423
287,0,149.979,458.419,1151.65,158.5,183.48,1130.37,-53.621,353.383,1213.67,-42.7807,249.131,1203.84,91.0469,517.312,870.571,91.5012,483.069,671.469,54.9686,481.563,499.253,89.7532,412.258,242.128,33.6733,362.838,194.908,248.911,414.638,197.627,69.5594,134.196,842.272,7.57059,159.767,658.847,-104.414,145.684,475.343,-199.986,178.104,284.275,-283.998,214.111,265.628,-85.3815,187.183,190.356
288,0,149.927,460.362,1151.28,158.896,185.369,1130.83,-53.3802,355.032,1214.04,-42.4236,250.777,1204.31,89.9608,518.542,870.354,90.1801,483.997,671.277,53.1628,482.132,499.114,86.7679,412.298,241.95,30.4908,362.814,194.833,245.77,414.589,197.472,71.1465,135.126,842.769,10.504,160.193,658.751,-103.25,145.835,476.307,-201.131,177.897,286.44,-285.329,213.918,269.003,-88.4263,187.134,190.331
289,0,149.817,462.27,1150.9,159.216,187.228,1131.28,-53.2068,356.669,1214.39,-42.1409,252.412,1204.75,88.8951,519.745,870.127,88.8904,484.912,671.069,51.3974,482.704,498.964,83.7951,412.343,241.775,27.3121,362.794,194.768,242.633,414.537,197.318,72.7976,136.005,843.256,13.6392,160.569,658.617,-101.919,145.975,477.296,-202.167,177.741,288.719,-286.517,213.831,272.556,-91.4845,187.087,190.363
290,0,149.647,464.14,1150.52,159.457,189.055,1131.7,-53.1005,358.296,1214.72,-41.9341,254.036,1205.18,87.8495,520.924,869.893,87.6335,485.815,670.848,49.6745,483.281,498.805,80.8372,412.395,241.604,24.1396,362.779,194.713,239.502,414.482,197.168,74.5192,136.836,843.727,16.9798,160.897,658.451,-100.414,146.108,478.314,-203.083,177.641,291.117,-287.55,213.859,276.289,-94.54,187.04,190.47
291,0,149.42,465.97,1150.12,159.616,190.847,1132.1,-53.0609,359.911,1215.02,-41.8042,255.649,1205.58,86.8223,522.078,869.654,86.4089,486.705,670.616,47.9942,483.863,498.638,77.8961,412.451,241.438,20.9754,362.769,194.667,236.377,414.424,197.02,76.3162,137.623,844.181,20.5268,161.181,658.257,-98.7275,146.236,479.365,-203.866,177.602,293.638,-288.417,214.01,280.201,-97.5718,186.992,190.666
292,0,149.134,467.757,1149.73,159.692,192.6,1132.49,-53.0874,361.514,1215.3,-41.7518,257.249,1205.95,85.8106,523.212,869.41,85.2147,487.585,670.374,46.355,484.449,498.465,74.973,412.513,241.279,17.8212,362.764,194.632,233.259,414.363,196.876,78.1907,138.37,844.614,24.2789,161.425,658.04,-96.8554,146.361,480.45,-204.506,177.626,296.281,-289.107,214.289,284.284,-100.553,186.941,190.97
293,0,148.789,469.5,1149.33,159.684,194.314,1132.85,-53.1792,363.104,1215.56,-41.7774,258.837,1206.3,84.8098,524.324,869.164,84.0473,488.452,670.125,44.7535,485.039,498.286,72.0684,412.58,241.127,14.6783,362.764,194.605,230.149,414.301,196.736,80.1428,139.08,845.025,28.2318,161.632,657.808,-94.7937,146.486,481.571,-204.987,177.716,299.044,-289.609,214.699,288.522,-103.452,186.887,191.396
294,0,148.385,471.196,1148.93,159.591,195.985,1133.18,-53.3354,364.682,1215.8,-41.881,260.412,1206.62,83.8147,525.419,868.917,82.9011,489.309,669.87,43.1842,485.632,498.104,69.1824,412.65,240.982,11.548,362.769,194.587,227.048,414.236,196.598,82.1698,139.758,845.413,32.3786,161.807,657.567,-92.5397,146.614,482.729,-205.296,177.873,301.919,-289.911,215.239,292.896,-106.229,186.827,191.959
295,0,147.923,472.846,1148.53,159.412,197.612,1133.5,-53.5549,366.247,1216.02,-42.0625,261.973,1206.92,82.8187,526.497,868.671,81.7692,490.154,669.611,41.64,486.227,497.92,66.3142,412.723,240.846,8.43097,362.777,194.577,223.956,414.171,196.464,84.2665,140.406,845.778,36.7098,161.955,657.325,-90.0921,146.746,483.921,-205.416,178.095,304.894,-290.001,215.906,297.377,-108.844,186.762,192.669
296,0,147.401,474.446,1148.13,159.146,199.194,1133.79,-53.8362,367.797,1216.22,-42.3212,263.519,1207.2,81.8145,527.558,868.425,80.6431,490.988,669.351,40.112,486.821,497.735,63.4624,412.798,240.717,5.32766,362.79,194.574,220.874,414.104,196.332,86.4253,141.027,846.122,41.2132,162.081,657.091,-87.4506,146.885,485.146,-205.33,178.383,307.954,-289.867,216.694,301.932,-111.246,186.689,193.537
297,0,146.819,475.998,1147.74,158.795,200.727,1134.06,-54.178,369.332,1216.4,-42.6566,265.049,1207.45,80.794,528.604,868.182,79.5128,491.81,669.089,38.5897,487.412,497.551,60.6252,412.875,240.597,2.23822,362.805,194.577,217.803,414.036,196.203,88.6366,141.625,846.447,45.8746,162.191,656.872,-84.6161,147.034,486.399,-205.022,178.732,311.076,-289.495,217.593,306.52,-113.385,186.608,194.566
298,0,146.176,477.499,1147.35,158.359,202.212,1134.31,-54.5786,370.852,1216.57,-43.0675,266.563,1207.69,79.7488,529.635,867.943,78.3674,492.62,668.829,37.0614,487.998,497.367,57.7999,412.953,240.484,-0.837526,362.822,194.585,214.744,413.967,196.076,90.8887,142.201,846.756,50.6774,162.29,656.678,-81.5901,147.195,487.675,-204.472,179.138,314.237,-288.872,218.591,311.095,-115.205,186.521,195.758
299,0,145.474,478.949,1146.96,157.839,203.646,1134.55,-55.0364,372.354,1216.72,-43.5527,268.059,1207.9,78.6704,530.651,867.707,77.1952,493.417,668.571,35.5145,488.576,497.186,54.9835,413.03,240.379,-3.90003,362.84,194.598,211.696,413.898,195.951,93.1686,142.757,847.053,55.6033,162.385,656.517,-78.3754,147.369,488.966,-203.66,179.596,317.407,-287.984,219.673,315.604,-116.649,186.428,197.108
300,0,144.71,480.347,1146.59,157.235,205.028,1134.76,-55.5495,373.839,1216.87,-44.1107,269.536,1208.11,77.5501,531.651,867.475,75.984,494.2,668.315,33.9358,489.143,497.008,52.1728,413.106,240.28,-6.95005,362.858,194.614,208.659,413.828,195.829,95.4622,143.296,847.344,60.6326,162.482,656.398,-74.9751,147.559,490.264,-202.568,180.101,320.552,-286.816,220.82,319.994,-117.66,186.331,198.606
301,0,143.886,481.693,1146.22,156.549,206.357,1134.96,-56.116,375.305,1217,-44.7396,270.993,1208.3,76.3797,532.633,867.248,74.7215,494.967,668.064,32.3118,489.697,496.833,49.3638,413.179,240.188,-9.9886,362.875,194.633,205.634,413.758,195.71,97.7546,143.818,847.634,65.7444,162.586,656.328,-71.393,147.767,491.558,-201.175,180.643,323.637,-285.352,222.015,324.205,-118.179,186.232,200.241
302,0,143.001,482.987,1145.86,155.784,207.632,1135.15,-56.7339,376.75,1217.12,-45.4378,272.429,1208.47,75.1517,533.596,867.027,73.3956,495.717,667.817,30.6292,490.233,496.663,46.5526,413.25,240.103,-13.0169,362.889,194.655,202.619,413.687,195.593,100.031,144.325,847.929,70.9172,162.702,656.317,-67.6335,147.994,492.839,-199.46,181.217,326.623,-283.577,223.237,328.179,-118.153,186.137,201.991
303,0,142.056,484.226,1145.51,154.941,208.852,1135.33,-57.4011,378.174,1217.24,-46.2029,273.842,1208.65,73.859,534.538,866.81,71.9948,496.447,667.575,28.8754,490.749,496.498,43.7353,413.316,240.023,-16.0365,362.9,194.677,199.614,413.616,195.479,102.278,144.817,848.236,76.129,162.837,656.37,-63.7011,148.241,494.093,-197.406,181.813,329.47,-281.475,224.465,331.854,-117.529,186.048,203.835
304,0,141.05,485.412,1145.18,154.022,210.015,1135.5,-58.1156,379.576,1217.35,-47.0327,275.232,1208.81,72.496,535.456,866.598,70.5087,497.157,667.339,27.0384,491.243,496.339,40.9076,413.378,239.948,-19.049,362.906,194.701,196.616,413.545,195.369,104.481,145.295,848.561,81.3577,162.996,656.496,-59.6005,148.51,495.31,-194.992,182.423,332.136,-279.03,225.678,335.173,-116.261,185.971,205.745
305,0,139.984,486.542,1144.86,153.031,211.121,1135.67,-58.875,380.953,1217.46,-47.9248,276.597,1208.98,71.058,536.346,866.392,68.9279,497.844,667.108,25.1081,491.711,496.186,38.0656,413.433,239.878,-22.0563,362.907,194.725,193.625,413.474,195.262,106.627,145.759,848.912,86.5818,163.182,656.701,-55.3368,148.801,496.475,-192.201,183.04,334.582,-276.228,226.857,338.082,-114.308,185.911,207.691
