Trajectories
100
,,Subj:LASI,,,Subj:RASI,,,Subj:LPSI,,,Subj:RPSI,,,Subj:LTHI,,,Subj:LKNE,,,Subj:LTIB,,,Subj:LANK,,,Subj:LHEE,,,Subj:LTOE,,,Subj:RTHI,,,Subj:RKNE,,,Subj:RTIB,,,Subj:RANK,,,Subj:RHEE,,,Subj:RTOE,,,
Frame,Sub Frame,X,Y,Z,X,Y,Z,X,Y,Z,X,Y,Z,X,Y,Z,X,Y,Z,X,Y,Z,X,Y,Z,X,Y,Z,X,Y,Z,X,Y,Z,X,Y,Z,X,Y,Z,X,Y,Z,X,Y,Z,X,Y,Z
,,mm,mm,mm,mm,mm,mm,mm,mm,mm,mm,mm,mm,mm,mm,mm,mm,mm,mm,mm,mm,mm,mm,mm,mm,mm,mm,mm,mm,mm,mm,mm,mm,mm,mm,mm,mm,mm,mm,mm,mm,mm,mm,mm,mm,mm,mm,mm,mm
1,0,85.4443,411.434,1149.98,111.38,136.868,1144.13,-114.008,302.257,1212.59,-97.7787,197.494,1209.58,21.7193,479.444,863.539,15.0801,469.172,663.406,-98.9967,473.916,532.177,-228.198,418.836,315.969,-305.307,369.866,312.338,-143.67,417.492,187.554,46.71,82.5985,862.202,21.6572,117.545,666.637,-9.14319,121.737,457.623,-5.14635,175.123,243.496,-69.8103,223.168,199.698,144.813,174.192,196.994
2,0,84.3434,410.439,1149.95,110.95,135.703,1143.62,-114.963,300.367,1212.24,-98.4221,195.716,1209.42,27.3765,479.359,864.798,25.4736,469.687,665.404,-90.5809,474.136,536.202,-224.999,418.051,323.551,-301.248,367.932,322.727,-146.402,416.602,191.262,45.3649,81.5733,861.71,18.9906,116.74,666.286,-12.0293,121.347,457.281,-8.08176,174.927,243.228,-72.7481,223.028,199.584,141.821,174.062,196.833
3,0,83.2331,409.479,1149.95,110.48,134.593,1143.11,-115.918,298.56,1211.93,-99.079,194.016,1209.28,32.6755,479.258,866.032,35.3679,470.104,667.373,-82.3508,474.261,539.954,-221.361,417.288,330.364,-296.871,366.089,331.942,-147.893,415.85,194.751,43.9954,80.6119,861.23,16.3621,115.984,665.95,-14.8956,120.988,456.955,-11.0202,174.749,242.976,-75.691,222.906,199.478,138.825,173.936,196.68
4,0,82.1136,408.554,1149.98,109.972,133.539,1142.61,-116.873,296.835,1211.67,-99.7495,192.392,1209.16,37.6162,479.14,867.239,44.763,470.422,669.315,-74.3063,474.292,543.433,-217.283,416.548,336.409,-292.175,364.338,339.981,-148.144,415.238,198.022,42.6016,79.7143,860.762,13.7717,115.277,665.627,-17.742,120.662,456.647,-13.9615,174.587,242.739,-78.6391,222.802,199.381,135.825,173.813,196.535
5,0,80.9848,407.664,1150.02,109.425,132.541,1142.12,-117.827,295.192,1211.45,-100.434,190.844,1209.06,42.1989,479.006,868.42,53.6587,470.642,671.228,-66.4474,474.229,546.639,-212.764,415.83,341.685,-287.159,362.68,346.845,-147.155,414.764,201.072,41.1834,78.8803,860.307,11.2194,114.619,665.319,-20.5685,120.367,456.354,-16.9059,174.443,242.518,-81.5923,222.716,199.292,132.822,173.694,196.399
6,0,79.8468,406.808,1150.09,108.839,131.597,1141.64,-118.781,293.632,1211.28,-101.131,189.374,1208.99,46.4242,478.856,869.574,62.0552,470.763,673.112,-58.7745,474.073,549.571,-207.802,415.135,346.194,-281.817,361.114,352.532,-144.93,414.431,203.901,39.741,78.1099,859.863,8.70523,114.01,665.025,-23.3749,120.104,456.078,-19.8532,174.314,242.312,-84.5506,222.647,199.211,129.815,173.578,196.27
7,0,78.6998,405.987,1150.19,108.214,130.71,1141.17,-119.734,292.154,1211.15,-101.842,187.98,1208.94,50.2928,478.689,870.701,69.9521,470.787,674.967,-51.2878,473.825,552.229,-202.394,414.465,349.934,-276.141,359.642,357.044,-141.473,414.24,206.505,38.2744,77.4026,859.432,6.22932,113.449,664.745,-26.1608,119.872,455.819,-22.8032,174.203,242.122,-87.5141,222.596,199.139,126.805,173.466,196.15
8,0,77.5442,405.202,1150.31,107.551,129.877,1140.71,-120.687,290.759,1211.07,-102.566,186.663,1208.92,53.8064,478.507,871.802,77.3495,470.715,676.79,-43.9879,473.488,554.61,-196.536,413.822,352.907,-270.119,358.266,360.381,-136.794,414.193,208.88,36.784,76.7579,859.013,3.79172,112.936,664.48,-28.9259,119.671,455.575,-25.756,174.107,241.947,-90.4827,222.56,199.074,123.791,173.357,196.037
9,0,76.3803,404.452,1150.45,106.85,129.1,1140.26,-121.639,289.445,1211.02,-103.303,185.422,1208.91,56.9672,478.311,872.875,84.2474,470.546,678.579,-36.8755,473.064,556.714,-190.221,413.209,355.116,-263.736,356.986,362.548,-130.904,414.291,211.022,35.2699,76.1753,858.607,1.39253,112.472,664.228,-31.6695,119.5,455.348,-28.7112,174.026,241.787,-93.4564,222.54,199.018,120.773,173.252,195.932
10,0,75.2089,403.737,1150.62,106.111,128.378,1139.81,-122.591,288.214,1211.02,-104.053,184.258,1208.93,59.7784,478.1,873.919,90.6458,470.284,680.331,-29.9519,472.558,558.538,-183.445,412.629,356.566,-256.969,355.807,363.55,-123.822,414.536,212.927,33.7327,75.6537,858.215,-0.968191,112.055,663.989,-34.391,119.358,455.136,-31.6687,173.959,241.641,-96.4353,222.533,198.969,117.752,173.15,195.833
11,0,74.0307,403.059,1150.8,105.336,127.712,1139.38,-123.541,287.064,1211.07,-104.815,183.171,1208.97,62.2446,477.876,874.934,96.5452,469.93,682.041,-23.2188,471.976,560.082,-176.198,412.087,357.266,-249.796,354.732,363.403,-115.57,414.928,214.593,32.173,75.1921,857.837,-3.29045,111.684,663.765,-37.0897,119.244,454.94,-34.6281,173.906,241.51,-99.4192,222.538,198.928,114.728,173.051,195.739
12,0,72.8469,402.417,1151.01,104.525,127.1,1138.95,-124.489,285.996,1211.15,-105.588,182.16,1209.03,64.3713,477.641,875.919,101.946,469.487,683.705,-16.6783,471.324,561.344,-168.475,411.588,357.228,-242.188,353.764,362.126,-106.182,415.466,216.02,30.5915,74.7893,857.473,-5.57435,111.36,663.553,-39.7646,119.158,454.76,-37.5891,173.865,241.392,-102.408,222.554,198.894,111.701,172.955,195.651
13,0,71.6589,401.812,1151.24,103.68,126.544,1138.53,-125.435,285.009,1211.27,-106.372,181.225,1209.11,66.1657,477.397,876.871,106.851,468.959,685.317,-10.3334,470.611,562.322,-160.269,411.136,356.47,-234.118,352.909,359.749,-95.6936,416.145,217.211,28.9894,74.4439,857.123,-7.82015,111.08,663.354,-42.4152,119.097,454.593,-40.5515,173.835,241.287,-105.402,222.578,198.867,108.671,172.862,195.567
14,0,70.4684,401.246,1151.49,102.802,126.042,1138.12,-126.378,284.103,1211.43,-107.167,180.366,1209.21,67.6364,477.146,877.79,111.261,468.35,686.871,-4.18748,469.843,563.018,-151.577,410.737,355.019,-225.557,352.172,356.313,-84.1534,416.957,218.174,27.3678,74.1543,856.79,-10.0283,110.844,663.168,-45.0409,119.06,454.441,-43.5148,173.815,241.194,-108.401,222.608,198.845,105.637,172.771,195.486
15,0,69.2773,400.719,1151.76,101.893,125.594,1137.71,-127.318,283.278,1211.62,-107.97,179.583,1209.32,68.7938,476.89,878.674,115.179,467.666,688.358,1.75503,469.033,563.433,-142.398,410.397,352.905,-216.48,351.559,351.87,-71.6168,417.891,218.921,25.7282,73.919,856.472,-12.1994,110.65,662.994,-47.6411,119.045,454.303,-46.4789,173.802,241.112,-111.404,222.641,198.83,102.601,172.684,195.407
16,0,68.0881,400.231,1152.04,100.955,125.201,1137.31,-128.252,282.533,1211.84,-108.78,178.876,1209.45,69.6496,476.632,879.519,118.609,466.912,689.772,7.48895,468.19,563.568,-132.738,410.122,350.168,-206.866,351.075,346.485,-58.1494,418.93,219.47,24.0723,73.7364,856.171,-14.3346,110.497,662.831,-50.2159,119.051,454.177,-49.4434,173.795,241.041,-114.411,222.675,198.819,99.5618,172.598,195.329
17,0,66.9034,399.785,1152.34,99.9902,124.862,1136.92,-129.18,281.868,1212.1,-109.597,178.244,1209.6,70.2176,476.376,880.326,121.557,466.095,691.105,13.0082,467.325,563.43,-122.606,409.915,346.856,-196.701,350.726,340.237,-43.8264,420.053,219.841,22.4019,73.6049,855.885,-16.4351,110.384,662.678,-52.7655,119.075,454.064,-52.4084,173.793,240.98,-117.423,222.707,198.813,96.5199,172.515,195.251
18,0,65.7264,399.381,1152.64,99.0016,124.576,1136.53,-130.101,281.282,1212.38,-110.418,177.687,1209.75,70.5128,476.124,881.089,124.03,465.223,692.347,18.3056,466.45,563.025,-112.021,409.779,343.024,-185.981,350.516,333.219,-28.733,421.236,220.061,20.7191,73.523,855.617,-18.5024,110.31,662.536,-55.2904,119.115,453.963,-55.3737,173.794,240.927,-120.439,222.737,198.811,93.4751,172.434,195.173
19,0,64.5603,399.02,1152.96,97.992,124.344,1136.14,-131.013,280.774,1212.68,-111.242,177.205,1209.92,70.5517,475.88,881.809,126.036,464.304,693.491,23.3733,465.577,562.36,-101.01,409.719,338.735,-174.712,350.449,325.536,-12.9646,422.45,220.158,19.0264,73.4891,855.364,-20.5387,110.272,662.404,-57.792,119.17,453.872,-58.3396,173.797,240.882,-123.46,222.761,198.811,90.4272,172.355,195.093
20,0,63.4089,398.705,1153.28,96.9646,124.165,1135.76,-131.913,280.345,1213,-112.066,176.798,1210.1,70.3524,475.649,882.481,127.584,463.347,694.529,28.2023,464.716,561.449,-89.6073,409.734,334.056,-162.916,350.527,317.304,3.37371,423.661,220.162,17.3262,73.5018,855.127,-22.5462,110.269,662.279,-60.2716,119.238,453.791,-61.3065,173.801,240.844,-126.484,222.777,198.813,87.3759,172.277,195.012
21,0,62.2762,398.435,1153.6,95.923,124.038,1135.38,-132.801,279.994,1213.34,-112.889,176.465,1210.27,69.9338,475.433,883.103,128.687,462.361,695.453,32.7826,463.878,560.304,-77.8603,409.824,329.063,-150.627,350.751,308.646,20.167,424.835,220.103,15.6211,73.5599,854.904,-24.5277,110.3,662.163,-62.7316,119.316,453.72,-64.2747,173.804,240.812,-129.512,222.786,198.817,84.3208,172.202,194.929
22,0,61.1667,398.214,1153.92,94.8708,123.963,1135,-133.674,279.72,1213.7,-113.708,176.206,1210.46,69.3158,475.236,883.673,129.357,461.357,696.257,37.1035,463.074,558.941,-65.8258,409.988,323.833,-137.897,351.118,299.696,37.2914,425.939,220.011,13.9139,73.6621,854.695,-26.4861,110.363,662.054,-65.1743,119.404,453.657,-67.2452,173.806,240.785,-132.546,222.786,198.821,81.2612,172.128,194.843
23,0,60.0847,398.042,1154.24,93.8121,123.939,1134.63,-134.529,279.523,1214.06,-114.521,176.021,1210.64,68.5189,475.062,884.188,129.61,460.345,696.934,41.1536,462.314,557.378,-53.5715,410.221,318.446,-124.795,351.624,290.587,54.615,426.937,219.911,12.2076,73.8074,854.499,-28.4246,110.458,661.951,-67.6028,119.5,453.602,-70.2188,173.806,240.763,-135.584,222.775,198.824,78.1965,172.055,194.755
24,0,59.0351,397.92,1154.54,92.7509,123.967,1134.25,-135.364,279.402,1214.42,-115.324,175.91,1210.82,67.5639,474.914,884.645,129.462,459.335,697.479,44.9206,461.604,555.635,-41.1754,410.518,312.981,-111.404,352.259,281.454,71.9988,427.797,219.825,10.505,73.9946,854.312,-30.3466,110.584,661.853,-70.0205,119.602,453.555,-73.1966,173.804,240.744,-138.628,222.756,198.827,75.1257,171.984,194.665
25,0,58.0228,397.849,1154.84,91.6916,124.044,1133.87,-136.176,279.356,1214.78,-116.116,175.872,1210.99,66.4716,474.796,885.042,128.932,458.338,697.89,48.3921,460.953,553.731,-28.7257,410.873,307.517,-97.8242,353.014,272.429,89.2984,428.494,219.767,8.80905,74.223,854.135,-32.2558,110.738,661.759,-72.4309,119.71,453.514,-76.18,173.799,240.728,-141.678,222.726,198.827,72.0479,171.914,194.572
26,0,57.0528,397.832,1155.12,90.6385,124.172,1133.48,-136.963,279.386,1215.14,-116.894,175.907,1211.16,65.2624,474.71,885.377,128.039,457.365,698.162,51.5552,460.366,551.691,-16.3185,411.276,302.127,-84.1698,353.874,263.636,106.366,429.004,219.746,7.12261,74.4915,853.964,-34.1557,110.921,661.669,-74.838,119.823,453.479,-79.1703,173.791,240.715,-144.736,222.687,198.824,68.9618,171.845,194.478
27,0,56.1304,397.869,1155.38,89.5961,124.35,1133.1,-137.721,279.49,1215.49,-117.653,176.015,1211.32,63.9562,474.659,885.648,126.804,456.425,698.295,54.397,459.847,549.536,-4.05736,411.719,296.879,-70.5665,354.822,255.189,123.053,429.313,219.765,5.4485,74.7994,853.797,-36.0498,111.133,661.581,-77.2456,119.94,453.45,-82.1692,173.78,240.703,-147.803,222.64,198.818,65.8662,171.776,194.382
28,0,55.2604,397.961,1155.61,88.5689,124.576,1132.71,-138.447,279.669,1215.82,-118.393,176.195,1211.46,62.5718,474.645,885.853,125.247,455.53,698.289,56.9051,459.399,547.29,7.94968,412.191,291.834,-57.1492,355.839,247.187,139.211,429.414,219.819,3.78943,75.1457,853.631,-37.9415,111.373,661.495,-79.6577,120.062,453.426,-85.1782,173.767,240.692,-150.881,222.585,198.808,62.7597,171.708,194.285
29,0,54.4479,398.11,1155.82,87.5613,124.851,1132.32,-139.139,279.921,1216.14,-119.109,176.448,1211.58,61.1268,474.67,885.991,123.392,454.688,698.147,59.0675,459.024,544.975,19.5919,412.681,287.045,-44.0582,356.906,239.716,154.697,429.307,219.895,2.14796,75.5296,853.465,-39.8337,111.641,661.409,-82.0778,120.187,453.407,-88.1991,173.751,240.683,-153.97,222.524,198.794,59.6409,171.639,194.187
30,0,53.6979,398.315,1156,86.5779,125.174,1131.92,-139.793,280.246,1216.44,-119.799,176.772,1211.69,59.6373,474.735,886.06,121.261,453.909,697.871,60.8729,458.722,542.614,30.7587,413.179,282.551,-31.4358,357.999,232.841,169.374,429,219.978,0.526516,75.9503,853.296,-41.7293,111.937,661.322,-84.5093,120.317,453.392,-91.2335,173.734,240.673,-157.073,222.457,198.775,56.5083,171.57,194.088
31,0,53.0149,398.577,1156.14,85.6229,125.544,1131.51,-140.407,280.644,1216.71,-120.46,177.168,1211.77,58.1177,474.842,886.061,118.876,453.2,697.465,62.3117,458.492,540.229,41.3426,413.674,278.387,-19.4216,359.099,226.61,183.119,428.51,220.047,-1.07267,76.4071,853.12,-43.6303,112.262,661.234,-86.9553,120.452,453.381,-94.283,173.716,240.664,-160.191,222.386,198.751,53.3602,171.5,193.988
32,0,52.4034,398.898,1156.25,84.7005,125.961,1131.1,-140.976,281.114,1216.95,-121.089,177.635,1211.84,56.5804,474.992,885.993,116.261,452.569,696.936,63.3755,458.331,537.839,51.242,414.156,274.57,-8.14875,360.183,221.049,195.817,427.86,220.076,-2.64751,76.899,852.937,-45.5385,112.616,661.144,-89.4181,120.593,453.375,-97.3492,173.697,240.654,-163.326,222.311,198.721,50.1953,171.428,193.888
33,0,51.8673,399.277,1156.32,83.8148,126.425,1130.69,-141.499,281.656,1217.17,-121.684,178.174,1211.87,55.0361,475.185,885.856,113.437,452.022,696.29,64.058,458.238,535.463,60.3638,414.614,271.112,2.26052,361.232,216.167,207.375,427.078,220.043,-4.19611,77.4253,852.743,-47.4548,113.001,661.051,-91.8995,120.74,453.372,-100.433,173.679,240.643,-166.48,222.235,198.686,47.012,171.355,193.787
34,0,51.4104,399.714,1156.36,82.9694,126.936,1130.27,-141.973,282.27,1217.35,-122.242,178.782,1211.88,53.4931,475.421,885.652,110.426,451.566,695.536,64.3552,458.208,533.116,68.6269,415.042,268.012,11.699,362.229,211.953,217.715,426.198,219.922,-5.7167,77.9853,852.535,-49.3794,113.417,660.954,-94.4005,120.896,453.373,-103.537,173.662,240.631,-169.653,222.158,198.646,43.809,171.28,193.686
35,0,51.0357,400.21,1156.35,82.1678,127.493,1129.85,-142.396,282.954,1217.5,-122.761,179.461,1211.87,51.958,475.701,885.382,107.249,451.203,694.683,64.2656,458.236,530.814,75.9635,415.431,265.26,20.0779,363.159,208.38,226.784,425.253,219.693,-7.20761,78.5784,852.314,-51.3117,113.866,660.852,-96.9213,121.061,453.377,-106.66,173.648,240.619,-172.848,222.082,198.601,40.5852,171.202,193.584
36,0,50.7461,400.765,1156.29,81.4134,128.096,1129.42,-142.764,283.709,1217.61,-123.239,180.21,1211.82,50.4352,476.025,885.048,103.927,450.938,693.741,63.7906,458.32,528.569,82.3223,415.776,262.84,27.3299,364.01,205.408,234.549,424.281,219.337,-8.66728,79.2038,852.076,-53.2503,114.35,660.745,-99.4613,121.238,453.385,-109.804,173.637,240.606,-176.065,222.007,198.551,37.3396,171.121,193.482
37,0,50.5434,401.377,1156.2,80.7087,128.744,1128.99,-143.077,284.533,1217.69,-123.674,181.028,1211.74,48.9275,476.394,884.654,100.476,450.774,692.719,62.9347,458.453,526.391,87.6692,416.072,260.726,33.4112,364.773,202.984,241.001,423.315,218.842,-10.0941,79.8613,851.82,-55.1927,114.869,660.631,-102.019,121.427,453.396,-112.969,173.632,240.593,-179.304,221.934,198.495,34.0714,171.038,193.38
38,0,50.4293,402.048,1156.07,80.0565,129.439,1128.55,-143.333,285.427,1217.73,-124.064,181.915,1211.64,47.4358,476.807,884.204,96.9171,450.711,691.631,61.7058,458.632,524.288,91.9883,416.317,258.89,38.303,365.444,201.047,246.158,422.39,218.201,-11.4866,80.5504,851.545,-57.1357,115.426,660.511,-104.591,121.632,453.412,-116.155,173.632,240.58,-182.567,221.866,198.436,30.7805,170.952,193.278
39,0,50.4046,402.776,1155.89,79.4586,130.179,1128.12,-143.53,286.39,1217.73,-124.408,182.869,1211.5,45.9599,477.264,883.701,93.2652,450.75,690.485,60.1151,458.853,522.267,95.2828,416.51,257.299,42.0115,366.02,199.534,250.056,421.533,217.414,-12.843,81.2712,851.251,-59.0751,116.022,660.383,-107.175,121.855,453.43,-119.362,173.641,240.567,-185.852,221.802,198.373,27.4668,170.865,193.176
40,0,50.4694,403.561,1155.68,78.9167,130.965,1127.68,-143.667,287.42,1217.7,-124.706,183.891,1211.33,44.4983,477.767,883.151,89.5366,450.891,689.296,58.1772,459.111,520.332,97.5741,416.65,255.92,44.5675,366.501,198.377,252.757,420.77,216.486,-14.1616,82.0237,850.938,-61.0057,116.658,660.248,-109.766,122.097,453.452,-122.588,173.659,240.556,-189.16,221.743,198.307,24.1307,170.776,193.075
41,0,50.6231,404.403,1155.42,78.432,131.796,1127.25,-143.746,288.518,1217.62,-124.957,184.98,1211.14,43.0485,478.315,882.559,85.7461,451.133,688.073,55.9099,459.403,518.485,98.9006,416.739,254.719,46.0244,366.89,197.51,254.34,420.119,215.429,-15.4403,82.8082,850.604,-62.9215,117.338,660.104,-112.359,122.362,453.478,-125.831,173.687,240.547,-192.488,221.693,198.239,20.7731,170.687,192.975
42,0,50.8646,405.3,1155.14,78.0051,132.674,1126.82,-143.764,289.682,1217.52,-125.16,186.135,1210.91,41.6078,478.908,881.931,81.9077,451.472,686.829,53.3345,459.728,516.73,99.3171,416.78,253.663,46.456,367.192,196.87,254.9,419.593,214.26,-16.6768,83.6252,850.251,-64.8156,118.061,659.952,-114.948,122.651,453.508,-129.091,173.729,240.541,-195.836,221.65,198.17,17.3954,170.599,192.876
43,0,51.192,406.252,1154.82,77.6364,133.597,1126.4,-143.724,290.912,1217.38,-125.316,187.356,1210.66,40.173,479.548,881.274,78.0348,451.906,685.574,50.4751,460.083,515.065,98.8913,416.777,252.721,45.9528,367.415,196.403,254.544,419.201,213,-17.8687,84.4754,849.88,-66.6803,118.829,659.791,-117.525,122.966,453.54,-132.364,173.785,240.54,-199.201,221.616,198.102,13.9996,170.512,192.78
44,0,51.6026,407.258,1154.48,77.3254,134.566,1125.99,-143.626,292.206,1217.21,-125.425,188.64,1210.39,38.7412,480.234,880.595,74.14,452.432,684.32,47.3584,460.467,513.492,97.7023,416.734,251.867,44.6184,367.565,196.057,253.388,418.944,211.673,-19.0129,85.3597,849.49,-68.5071,119.643,659.621,-120.084,123.311,453.577,-135.648,173.856,240.546,-202.581,221.593,198.036,10.588,170.429,192.687
45,0,52.0932,408.318,1154.11,77.0716,135.582,1125.6,-143.471,293.565,1217.01,-125.489,189.988,1210.09,37.3097,480.967,879.9,70.2357,453.045,683.078,44.0134,460.879,512.008,95.8374,416.657,251.078,42.5649,367.652,195.792,251.552,418.817,210.307,-20.1064,86.2792,849.086,-70.287,120.505,659.442,-122.615,123.687,453.617,-138.94,173.945,240.559,-205.973,221.582,197.975,7.16331,170.351,192.598
46,0,52.6598,409.43,1153.72,76.8736,136.644,1125.21,-143.262,294.988,1216.78,-125.509,191.399,1209.76,35.8764,481.747,879.197,66.3339,453.74,681.855,40.471,461.321,510.612,93.3888,416.551,250.336,39.9091,367.685,195.575,249.156,418.813,208.926,-21.1455,87.235,848.667,-72.0101,121.414,659.254,-125.111,124.095,453.66,-142.235,174.051,240.581,-209.373,221.582,197.92,3.72893,170.279,192.513
47,0,53.2981,410.594,1153.32,76.7297,137.752,1124.85,-143.001,296.472,1216.53,-125.486,192.871,1209.42,34.4403,482.574,878.493,62.4466,454.513,680.663,36.7631,461.793,509.303,90.451,416.424,249.625,36.7675,367.672,195.381,246.316,418.919,207.558,-22.1261,88.2283,848.236,-73.6663,122.37,659.057,-127.563,124.538,453.706,-145.529,174.177,240.615,-212.779,221.595,197.875,0.288424,170.214,192.434
48,0,54.003,411.808,1152.9,76.6378,138.906,1124.51,-142.691,298.018,1216.26,-125.422,194.403,1209.06,33.0011,483.448,877.795,58.5854,455.357,679.508,32.9228,462.295,508.079,87.1174,416.282,248.937,33.253,367.624,195.192,243.142,419.121,206.227,-23.044,89.2604,847.796,-75.2448,123.374,658.853,-129.96,125.016,453.756,-148.819,174.323,240.663,-216.187,221.622,197.843,-3.15433,170.159,192.361
49,0,54.769,413.072,1152.48,76.5952,140.107,1124.19,-142.335,299.624,1215.97,-125.322,195.995,1208.69,31.5598,484.369,877.109,54.7623,456.266,678.399,28.9831,462.83,506.937,83.4782,416.132,248.266,29.471,367.549,194.999,239.733,419.4,204.954,-23.8944,90.3324,847.35,-76.7346,124.424,658.64,-132.295,125.531,453.809,-152.1,174.488,240.727,-219.593,221.661,197.828,-6.59526,170.114,192.295
50,0,55.5901,414.385,1152.05,76.5989,141.353,1123.9,-141.937,301.289,1215.67,-125.186,197.645,1208.3,30.1186,485.334,876.441,50.9889,457.235,677.34,24.9768,463.399,505.875,79.6177,415.979,247.608,25.5167,367.455,194.795,236.176,419.738,203.756,-24.6724,91.4452,846.901,-78.1244,125.519,658.419,-134.557,126.083,453.866,-155.366,174.672,240.808,-222.994,221.713,197.833,-10.0302,170.08,192.235
51,0,56.4602,415.746,1151.63,76.6453,142.645,1123.65,-141.501,303.013,1215.36,-125.018,199.353,1207.91,28.6806,486.344,875.797,47.277,458.258,676.339,20.9358,464.003,504.891,75.6122,415.83,246.963,21.473,367.349,194.581,232.544,420.116,202.649,-25.3726,92.5996,846.453,-79.4026,126.656,658.192,-136.737,126.671,453.927,-158.613,174.875,240.911,-226.385,221.777,197.865,-13.455,170.057,192.183
52,0,57.3726,417.153,1151.21,76.7307,143.982,1123.42,-141.032,304.794,1215.04,-124.823,201.116,1207.51,27.2502,487.396,875.181,43.6383,459.328,675.397,16.8908,464.644,503.983,71.5294,415.691,246.335,17.4095,367.238,194.358,228.897,420.517,201.642,-25.9895,93.7961,846.009,-80.5578,127.834,657.959,-138.827,127.296,453.992,-161.836,175.094,241.037,-229.764,221.851,197.927,-16.8656,170.046,192.138
53,0,58.3205,418.606,1150.8,76.8509,145.364,1123.24,-140.534,306.631,1214.71,-124.603,202.934,1207.1,25.8327,488.489,874.598,40.0843,460.438,674.519,12.8706,465.323,503.148,67.4267,415.565,245.725,13.3813,367.128,194.131,225.28,420.923,200.741,-26.5174,95.0347,845.574,-81.5782,129.049,657.72,-140.816,127.955,454.062,-165.029,175.328,241.189,-233.127,221.935,198.027,-20.2584,170.048,192.1
54,0,59.297,420.102,1150.4,77.0014,146.79,1123.1,-140.012,308.522,1214.38,-124.363,204.805,1206.7,24.4343,489.62,874.049,36.626,461.584,673.707,8.90177,466.041,502.384,63.351,415.456,245.139,9.4297,367.023,193.906,221.725,421.318,199.947,-26.9504,96.3151,845.151,-82.4523,130.298,657.477,-142.697,128.648,454.139,-168.188,175.575,241.371,-236.471,222.025,198.17,-23.6298,170.06,192.067
55,0,60.2952,421.642,1150.01,77.1775,148.258,1123.01,-139.471,310.467,1214.05,-124.108,206.728,1206.3,23.0617,490.786,873.538,33.274,462.759,672.961,5.00841,466.797,501.689,59.339,415.368,244.581,5.58267,366.926,193.688,218.253,421.69,199.259,-27.2826,97.6364,844.745,-83.1686,131.575,657.232,-144.461,129.371,454.223,-171.309,175.832,241.586,-239.793,222.119,198.364,-26.9769,170.083,192.039
56,0,61.3079,423.222,1149.64,77.3742,149.768,1122.96,-138.916,312.464,1213.72,-123.841,208.701,1205.9,21.7218,491.985,873.065,30.0384,463.957,672.282,1.21184,467.591,501.059,55.4175,415.301,244.055,1.85619,366.841,193.482,214.872,422.028,198.673,-27.5079,98.9971,844.361,-83.7158,132.877,656.984,-146.101,130.123,454.317,-174.385,176.094,241.837,-243.09,222.215,198.616,-30.2975,170.114,192.014
57,0,62.3283,424.842,1149.29,77.5863,151.318,1122.96,-138.353,314.512,1213.4,-123.568,210.724,1205.51,20.4217,493.213,872.632,26.9282,465.173,671.668,-2.46962,468.423,500.492,51.604,415.258,243.565,-1.74416,366.768,193.293,211.583,422.324,198.181,-27.6204,100.395,844.001,-84.0827,134.198,656.735,-147.608,130.899,454.422,-177.413,176.36,242.129,-246.361,222.31,198.936,-33.5896,170.154,191.989
58,0,63.3496,426.499,1148.96,77.8085,152.906,1123.02,-137.787,316.608,1213.09,-123.293,212.793,1205.13,19.1683,494.467,872.236,23.9513,466.403,671.117,-6.02077,469.289,499.985,47.9078,415.237,243.113,-5.22139,366.707,193.123,208.379,422.572,197.773,-27.6143,101.829,843.672,-84.2588,135.532,656.488,-148.977,131.695,454.54,-180.389,176.625,242.465,-249.603,222.4,199.333,-36.8524,170.199,191.962
59,0,64.3651,428.191,1148.65,78.0356,154.53,1123.13,-137.223,318.752,1212.79,-123.021,214.908,1204.76,17.9679,495.744,871.877,21.1143,467.642,670.627,-9.42963,470.189,499.534,44.3314,415.238,242.701,-8.58517,366.66,192.975,205.251,422.769,197.439,-27.484,103.294,843.376,-84.2334,136.872,656.243,-150.2,132.508,454.676,-183.308,176.884,242.853,-252.813,222.483,199.816,-40.0856,170.248,191.93
60,0,65.3684,429.917,1148.37,78.262,156.189,1123.3,-136.667,320.94,1212.49,-122.758,217.067,1204.4,16.8262,497.04,871.553,18.4226,468.886,670.194,-12.6874,471.118,499.135,40.8716,415.26,242.329,-11.8499,366.625,192.849,202.183,422.915,197.168,-27.2239,104.787,843.118,-83.9967,138.213,656.001,-151.271,133.332,454.831,-186.165,177.136,243.295,-255.989,222.555,200.396,-43.2898,170.3,191.89
61,0,66.3534,431.674,1148.1,78.4823,157.88,1123.52,-136.124,323.172,1212.21,-122.507,219.266,1204.06,15.7477,498.353,871.261,15.8795,470.131,669.814,-15.7885,472.075,498.786,37.5207,415.3,241.996,-15.033,366.6,192.744,199.16,423.01,196.949,-26.8292,106.304,842.901,-83.5392,139.548,655.766,-152.185,134.162,455.011,-188.958,177.375,243.8,-259.128,222.614,201.087,-46.4665,170.351,191.839
62,0,67.3142,433.458,1147.86,78.6911,159.6,1123.8,-135.597,325.445,1211.94,-122.275,221.505,1203.74,14.7359,499.679,870.998,13.4869,471.374,669.483,-18.7302,473.053,498.481,34.268,415.357,241.7,-18.153,366.585,192.66,196.166,423.059,196.77,-26.2949,107.84,842.728,-82.8521,140.868,655.538,-152.936,134.992,455.22,-191.681,177.599,244.375,-262.228,222.658,201.9,-49.618,170.401,191.773
63,0,68.2455,435.268,1147.63,78.8832,161.346,1124.14,-135.094,327.755,1211.69,-122.065,223.781,1203.43,13.7928,501.016,870.76,11.2448,472.613,669.196,-21.5129,474.051,498.217,31.1005,415.427,241.439,-21.2287,366.578,192.594,193.186,423.064,196.622,-25.6172,109.39,842.602,-81.9269,142.168,655.319,-153.519,135.817,455.463,-194.332,177.805,245.026,-265.286,222.685,202.848,-52.7474,170.449,191.689
64,0,69.142,437.1,1147.43,79.0533,163.116,1124.54,-134.617,330.101,1211.44,-121.882,226.09,1203.14,12.919,502.36,870.543,9.15097,473.846,668.947,-24.1396,475.062,497.99,28.0047,415.509,241.21,-24.2776,366.578,192.544,190.208,423.031,196.494,-24.7923,110.949,842.525,-80.7563,143.441,655.111,-153.931,136.631,455.745,-196.906,177.991,245.763,-268.297,222.694,203.948,-55.8587,170.493,191.584
65,0,69.9991,438.951,1147.24,79.1965,164.905,1125,-134.172,332.48,1211.22,-121.73,228.431,1202.87,12.1135,503.71,870.343,7.20163,475.07,668.731,-26.6159,476.084,497.794,24.9666,415.6,241.01,-27.3151,366.584,192.506,187.221,422.967,196.38,-23.8175,112.512,842.5,-79.3335,144.678,654.917,-154.166,137.427,456.072,-199.4,178.155,246.596,-271.258,222.685,205.213,-58.9563,170.532,191.458
66,0,70.8125,440.817,1147.07,79.308,166.711,1125.51,-133.761,334.888,1211,-121.614,230.799,1202.62,11.3736,505.063,870.157,5.39087,476.284,668.544,-28.9494,477.111,497.626,21.973,415.699,240.833,-30.3542,366.595,192.48,184.215,422.877,196.272,-22.6909,114.071,842.528,-77.653,145.874,654.737,-154.221,138.2,456.45,-201.811,178.295,247.534,-274.163,222.66,206.659,-62.0452,170.567,191.308
67,0,71.5782,442.694,1146.91,79.3831,168.53,1126.08,-133.39,337.321,1210.8,-121.538,233.192,1202.39,10.6952,506.417,869.98,3.71097,477.488,668.38,-31.1499,478.138,497.482,19.0118,415.804,240.676,-33.4052,366.61,192.461,181.186,422.768,196.165,-21.4115,115.622,842.609,-75.71,147.021,654.576,-154.092,138.944,456.885,-204.134,178.411,248.589,-277.007,222.618,208.304,-65.1308,170.598,191.137
68,0,72.2928,444.58,1146.77,79.4177,170.358,1126.7,-133.062,339.776,1210.61,-121.506,235.606,1202.17,10.0728,507.771,869.808,2.15252,478.679,668.234,-33.2287,479.163,497.356,16.0723,415.913,240.536,-36.475,366.629,192.448,178.131,422.646,196.055,-19.9793,117.158,842.744,-73.5011,148.115,654.434,-153.777,139.653,457.385,-206.366,178.504,249.772,-279.784,222.563,210.163,-68.2184,170.626,190.946
69,0,72.9531,446.469,1146.63,79.4076,172.192,1127.37,-132.779,342.249,1210.43,-121.52,238.038,1201.98,9.49934,509.122,869.639,0.704549,479.858,668.101,-35.1987,480.179,497.246,13.1456,416.025,240.408,-39.568,366.653,192.44,175.048,422.516,195.94,-18.3955,118.673,842.932,-71.024,149.148,654.314,-153.272,140.321,457.956,-208.503,178.573,251.096,-282.487,222.497,212.252,-71.3129,170.651,190.74
70,0,73.5564,448.359,1146.5,79.3492,174.026,1128.08,-132.544,344.736,1210.27,-121.584,240.483,1201.81,8.96659,510.468,869.468,-0.645284,481.023,667.978,-37.0736,481.185,497.148,10.2244,416.141,240.291,-42.6859,366.681,192.435,171.939,422.386,195.817,-16.6626,120.163,843.173,-68.2782,150.116,654.219,-152.576,140.944,458.603,-210.542,178.62,252.571,-285.107,222.424,214.586,-74.4185,170.677,190.524
71,0,74.1004,450.244,1146.38,79.2391,175.858,1128.83,-132.36,347.232,1210.11,-121.7,242.937,1201.65,8.4654,511.809,869.294,-1.91045,482.174,667.859,-38.8681,482.176,497.058,7.30353,416.258,240.18,-45.828,366.714,192.432,168.806,422.258,195.688,-14.7844,121.621,843.466,-65.2643,151.014,654.151,-151.687,141.516,459.334,-212.477,178.648,254.21,-287.637,222.348,217.18,-77.5383,170.703,190.308
72,0,74.5831,452.121,1146.25,79.0744,177.684,1129.62,-132.23,349.732,1209.96,-121.872,245.396,1201.5,7.98576,513.142,869.113,-3.10529,483.311,667.743,-40.5972,483.149,496.973,4.37907,416.377,240.075,-48.9918,366.751,192.431,165.652,422.137,195.551,-12.7662,123.042,843.808,-61.9848,151.838,654.113,-150.604,142.035,460.154,-214.306,178.657,256.024,-290.066,222.273,220.046,-80.6738,170.733,190.102
73,0,75.0028,453.985,1146.13,78.8524,179.498,1130.45,-132.154,352.232,1209.82,-122.101,247.856,1201.38,7.51711,514.464,868.924,-4.24478,484.433,667.625,-42.2762,484.1,496.891,1.4488,416.498,239.973,-52.1732,366.792,192.432,162.483,422.025,195.407,-10.6146,124.422,844.198,-58.4438,152.585,654.107,-149.325,142.496,461.068,-216.022,178.65,258.023,-292.385,222.204,223.194,-83.8239,170.768,189.919
74,0,75.3583,455.833,1146,78.5708,181.298,1131.3,-132.135,354.727,1209.69,-122.388,250.311,1201.26,7.04857,515.776,868.726,-5.34419,485.538,667.502,-43.9202,485.028,496.808,-1.48827,416.62,239.872,-55.3674,366.837,192.434,159.303,421.926,195.258,-8.33755,125.756,844.634,-54.6474,153.254,654.135,-147.851,142.896,462.079,-217.621,178.629,260.215,-294.582,222.146,226.629,-86.9851,170.809,189.775
75,0,75.6487,457.659,1145.87,78.2277,183.079,1132.17,-132.173,357.212,1209.56,-122.735,252.757,1201.16,6.56919,517.073,868.517,-6.41884,486.627,667.374,-45.5439,485.929,496.723,-4.43208,416.742,239.773,-58.5688,366.885,192.439,156.118,421.84,195.106,-5.94449,127.04,845.112,-50.6034,153.841,654.202,-146.182,143.234,463.192,-219.096,178.598,262.606,-296.647,222.102,230.356,-90.1504,170.859,189.686
76,0,75.8731,459.461,1145.73,77.8216,184.838,1133.06,-132.27,359.682,1209.44,-123.144,255.19,1201.08,6.0682,518.354,868.297,-7.48382,487.697,667.238,-47.1614,486.801,496.633,-7.3818,416.864,239.674,-61.7717,366.936,192.446,152.932,421.768,194.951,-3.44612,128.271,845.629,-46.3216,154.348,654.309,-144.319,143.509,464.407,-220.441,178.559,265.2,-298.567,222.078,234.371,-93.3089,170.918,189.67
77,0,76.0313,461.234,1145.59,77.3513,186.57,1133.97,-132.425,362.131,1209.31,-123.614,257.605,1201,5.53524,519.616,868.066,-8.55371,488.748,667.093,-48.786,487.643,496.539,-10.336,416.985,239.575,-64.9707,366.987,192.456,149.75,421.71,194.795,-0.85429,129.444,846.183,-41.8136,154.773,654.459,-142.263,143.719,465.726,-221.647,178.514,267.998,-300.328,222.077,238.668,-96.4454,170.985,189.747
78,0,76.1231,462.975,1145.43,76.8159,188.272,1134.88,-132.64,364.555,1209.19,-124.146,259.996,1200.93,4.96058,520.857,867.825,-9.64233,489.777,666.938,-50.43,488.452,496.438,-13.293,417.103,239.477,-68.1606,367.037,192.468,146.577,421.665,194.639,1.81807,130.558,846.77,-37.0932,155.118,654.655,-140.017,143.866,467.146,-222.705,178.466,270.995,-301.917,222.102,243.233,-99.54,171.06,189.936
79,0,76.1486,464.679,1145.26,76.2151,189.94,1135.79,-132.914,366.948,1209.07,-124.74,262.359,1200.87,4.33531,522.075,867.574,-10.7625,490.783,666.773,-52.1044,489.227,496.33,-16.2508,417.217,239.378,-71.3371,367.084,192.484,143.416,421.632,194.486,4.5572,131.609,847.388,-32.1758,155.385,654.9,-137.582,143.95,468.666,-223.605,178.415,274.186,-303.319,222.155,248.047,-102.568,171.141,190.254
80,0,76.1082,466.343,1145.08,75.5486,191.572,1136.7,-133.248,369.306,1208.96,-125.396,264.689,1200.81,3.65151,523.265,867.314,-11.9259,491.765,666.598,-53.8188,489.967,496.214,-19.2075,417.327,239.28,-74.4968,367.126,192.502,140.271,421.608,194.335,7.34865,132.598,848.034,-27.0787,155.577,655.197,-134.963,143.975,470.28,-224.334,178.365,277.557,-304.518,222.237,253.084,-105.499,171.226,190.72
81,0,76.0024,467.965,1144.89,74.8168,193.163,1137.61,-133.64,371.625,1208.84,-126.113,266.983,1200.76,2.90239,524.425,867.047,-13.1427,492.72,666.413,-55.5817,490.67,496.091,-22.1616,417.429,239.182,-77.6372,367.162,192.522,137.144,421.592,194.188,10.1776,133.521,848.705,-21.8207,155.697,655.548,-132.161,143.941,471.982,-224.88,178.316,281.093,-305.498,222.35,258.31,-108.297,171.31,191.347
82,0,75.8322,469.54,1144.68,74.02,194.711,1138.5,-134.09,373.898,1208.72,-126.89,269.235,1200.72,2.08236,525.553,866.773,-14.4219,493.645,666.219,-57.3999,491.336,495.961,-25.1116,417.523,239.085,-80.7565,367.19,192.543,134.036,421.582,194.045,13.0288,134.378,849.398,-16.4222,155.751,655.957,-129.183,143.854,473.764,-225.225,178.268,284.772,-306.24,222.493,263.686,-110.924,171.39,192.147
83,0,75.5984,471.066,1144.46,73.1591,196.212,1139.38,-134.597,376.123,1208.6,-127.726,271.441,1200.68,1.18716,526.646,866.494,-15.7706,494.54,666.015,-59.2787,491.965,495.824,-28.0564,417.607,238.989,-83.8542,367.207,192.566,130.949,421.575,193.906,15.8873,135.168,850.113,-10.9051,155.742,656.425,-126.031,143.718,475.615,-225.354,178.222,288.567,-306.727,222.664,269.165,-113.334,171.46,193.128
84,0,75.3023,472.539,1144.22,72.2351,197.666,1140.23,-135.16,378.295,1208.47,-128.619,273.598,1200.64,0.213837,527.701,866.212,-17.1945,495.401,665.805,-61.222,492.555,495.681,-30.9953,417.68,238.893,-86.9305,367.214,192.587,127.883,421.57,193.772,18.7383,135.893,850.846,-5.29231,155.677,656.955,-122.71,143.536,477.523,-225.248,178.177,292.447,-306.939,222.859,274.695,-115.48,171.515,194.293
85,0,74.9451,473.959,1143.97,71.2494,199.068,1141.07,-135.778,380.411,1208.35,-129.568,275.701,1200.6,-0.839251,528.715,865.928,-18.6977,496.225,665.588,-63.2323,493.106,495.533,-33.9282,417.74,238.798,-89.9864,367.208,192.607,124.836,421.563,193.643,21.5672,136.552,851.597,0.392384,155.562,657.548,-119.225,143.314,479.475,-224.886,178.131,296.375,-306.856,223.075,280.217,-117.309,171.548,195.638
86,0,74.5284,475.322,1143.71,70.2035,200.418,1141.88,-136.45,382.467,1208.22,-130.571,277.748,1200.57,-1.97244,529.686,865.643,-20.2824,497.012,665.365,-65.3107,493.619,495.382,-36.8552,417.787,238.704,-93.0235,367.19,192.624,121.809,421.554,193.519,24.3603,137.147,852.364,6.12441,155.404,658.207,-115.581,143.059,481.455,-224.248,178.083,300.313,-306.457,223.306,285.668,-118.768,171.553,197.158
87,0,74.0539,476.626,1143.43,69.0993,201.712,1142.66,-137.173,384.46,1208.1,-131.626,279.736,1200.54,-3.18485,530.613,865.36,-21.9494,497.759,665.138,-67.4568,494.094,495.227,-39.777,417.819,238.611,-96.0439,367.158,192.637,118.799,421.54,193.399,27.1046,137.679,853.148,11.8788,155.21,658.933,-111.783,142.775,483.447,-223.311,178.031,304.215,-305.72,223.547,290.983,-119.802,171.525,198.836
88,0,73.5234,477.87,1143.15,67.9387,202.951,1143.42,-137.946,386.387,1207.97,-132.731,281.661,1200.52,-4.47444,531.492,865.079,-23.6982,498.463,664.909,-69.6695,494.53,495.072,-42.6944,417.837,238.518,-99.0501,367.115,192.645,115.804,421.519,193.285,29.7879,138.151,853.948,17.6303,154.987,659.726,-107.835,142.468,485.433,-222.052,177.972,308.037,-304.626,223.79,296.092,-120.357,171.458,200.656
89,0,72.9388,479.052,1142.85,66.724,204.131,1144.14,-138.767,388.247,1207.84,-133.883,283.521,1200.49,-5.83813,532.322,864.801,-25.5265,499.124,664.678,-71.9461,494.929,494.916,-45.6088,417.841,238.427,-102.045,367.059,192.646,112.822,421.492,193.175,32.3992,138.564,854.765,23.3539,154.744,660.588,-103.743,142.144,487.396,-220.446,177.903,311.728,-303.15,224.028,300.928,-120.379,171.349,202.592
90,0,72.302,480.171,1142.53,65.4575,205.252,1144.84,-139.635,390.036,1207.72,-135.079,285.314,1200.47,-7.27192,533.103,864.528,-27.4312,499.739,664.447,-74.2832,495.291,494.762,-48.5216,417.83,238.336,-105.03,366.991,192.639,109.849,421.457,193.07,34.9284,138.923,855.598,29.0248,154.487,661.518,-99.511,141.81,489.316,-218.47,177.821,315.241,-301.273,224.251,305.421,-119.818,171.193,204.614
91,0,71.6154,481.226,1142.21,64.142,206.314,1145.5,-140.546,391.754,1207.59,-136.318,287.038,1200.45,-8.771,533.832,864.26,-29.4076,500.308,664.217,-76.6768,495.616,494.611,-51.4344,417.805,238.246,-108.009,366.913,192.624,106.884,421.413,192.97,37.3664,139.229,856.448,34.6186,154.225,662.515,-95.1432,141.47,491.175,-216.102,177.723,318.525,-298.974,224.451,309.506,-118.625,170.99,206.691
92,0,70.8809,482.215,1141.88,62.7802,207.315,1146.14,-141.499,393.399,1207.47,-137.596,288.692,1200.44,-10.3299,534.509,863.997,-31.4504,500.829,663.989,-79.1219,495.905,494.465,-54.3489,417.768,238.158,-110.984,366.826,192.601,103.922,421.362,192.875,39.7052,139.488,857.317,40.1121,153.964,663.577,-90.6439,141.13,492.954,-213.317,177.604,321.534,-296.232,224.62,313.12,-116.758,170.739,208.786
93,0,70.101,483.139,1141.55,61.375,208.255,1146.74,-142.491,394.971,1207.35,-138.911,290.275,1200.43,-11.9426,535.134,863.74,-33.5533,501.301,663.764,-81.613,496.159,494.324,-57.2668,417.718,238.07,-113.958,366.731,192.568,100.962,421.302,192.785,41.9378,139.702,858.205,45.4828,153.713,664.704,-86.0173,140.794,494.636,-210.095,177.462,324.222,-293.028,224.748,316.208,-114.18,170.442,210.863
94,0,69.278,483.997,1141.2,59.9296,209.134,1147.32,-143.521,396.468,1207.23,-140.259,291.786,1200.43,-13.6026,535.705,863.488,-35.7095,501.724,663.543,-84.1444,496.378,494.19,-60.1897,417.658,237.984,-116.931,366.629,192.527,97.9998,421.234,192.699,44.0582,139.875,859.113,50.7093,153.478,665.892,-81.267,140.467,496.205,-206.417,177.294,326.547,-289.346,224.827,318.719,-110.86,170.102,212.882
95,0,68.4141,484.788,1140.86,58.4474,209.951,1147.87,-144.584,397.891,1207.12,-141.637,293.224,1200.44,-15.3033,536.222,863.243,-37.9115,502.097,663.328,-86.7098,496.563,494.063,-63.1193,417.588,237.9,-119.906,366.52,192.477,95.0332,421.159,192.618,46.0611,140.011,860.041,55.7719,153.265,667.137,-76.3968,140.154,497.643,-202.265,177.098,328.474,-285.169,224.851,320.61,-106.776,169.725,214.808
96,0,67.5119,485.514,1140.51,56.9318,210.708,1148.4,-145.68,399.239,1207.01,-143.042,294.588,1200.45,-17.0378,536.686,863.002,-40.1518,502.421,663.117,-89.3029,496.716,493.946,-66.0568,417.509,237.817,-122.885,366.406,192.419,92.0597,421.078,192.541,47.942,140.115,860.99,60.6521,153.08,668.435,-71.4105,139.857,498.94,-197.624,176.871,329.971,-280.484,224.811,321.851,-101.912,169.317,216.607
97,0,66.5736,486.174,1140.15,55.3866,211.405,1148.9,-146.804,400.512,1206.91,-144.471,295.879,1200.47,-18.7991,537.097,862.766,-42.4226,502.696,662.913,-91.9174,496.836,493.837,-69.0034,417.424,237.736,-125.868,366.288,192.354,89.0772,420.992,192.469,49.6971,140.19,861.961,65.3331,152.928,669.781,-66.3117,139.579,500.083,-192.482,176.613,331.013,-275.281,224.703,322.417,-96.2601,168.885,218.247
98,0,65.6017,486.769,1139.8,53.8156,212.042,1149.38,-147.956,401.71,1206.81,-145.92,297.097,1200.5,-20.5805,537.455,862.535,-44.7159,502.923,662.715,-94.5468,496.924,493.739,-71.9602,417.332,237.657,-128.857,366.166,192.281,86.0837,420.902,192.4,51.323,140.24,862.952,69.7999,152.814,671.169,-61.1043,139.324,501.062,-186.83,176.324,331.585,-269.549,224.523,322.297,-89.8211,168.44,219.703
99,0,64.5986,487.3,1139.44,52.2229,212.619,1149.84,-149.13,402.835,1206.72,-147.386,298.242,1200.55,-22.3752,537.76,862.307,-47.0241,503.101,662.525,-97.1849,496.982,493.651,-74.9279,417.235,237.58,-131.852,366.04,192.204,83.0776,420.808,192.334,52.8169,140.268,863.963,74.0392,152.742,672.593,-55.7928,139.092,501.873,-180.664,176.004,331.676,-263.283,224.268,321.489,-82.6035,167.991,220.954
100,0,63.5665,487.769,1139.09,50.6129,213.139,1150.29,-150.326,403.886,1206.64,-148.866,299.313,1200.6,-24.1768,538.014,862.082,-49.34,503.234,662.341,-99.8256,497.011,493.573,-77.9072,417.134,237.505,-134.856,365.91,192.122,80.0574,420.713,192.271,54.1765,140.277,864.993,78.0394,152.714,674.045,-50.3818,138.886,502.51,-173.982,175.655,331.288,-256.481,223.938,320.003,-74.6237,167.547,221.985
101,0,62.5078,488.176,1138.74,48.9899,213.602,1150.71,-151.54,404.864,1206.57,-150.355,300.312,1200.66,-25.9792,538.216,861.859,-51.6563,503.32,662.164,-102.463,497.01,493.504,-80.8984,417.03,237.432,-137.868,365.777,192.038,77.0218,420.616,192.21,55.3997,140.27,866.039,81.791,152.734,675.518,-44.8767,138.708,502.974,-166.786,175.279,330.427,-249.142,223.533,317.86,-65.9055,167.12,222.791
102,0,61.4248,488.522,1138.38,47.3587,214.01,1151.13,-152.769,405.769,1206.51,-151.849,301.239,1200.74,-27.7768,538.368,861.637,-53.9667,503.363,661.994,-105.092,496.982,493.446,-83.9018,416.922,237.362,-140.892,365.64,191.951,73.97,420.52,192.15,56.4847,140.25,867.1,85.2862,152.803,677.004,-39.2837,138.557,503.265,-159.083,174.88,329.109,-241.271,223.057,315.091,-56.4794,166.719,223.369
103,0,60.3196,488.811,1138.04,45.7241,214.363,1151.53,-154.009,406.603,1206.45,-153.346,302.095,1200.82,-29.5644,538.471,861.415,-56.2652,503.364,661.831,-107.708,496.927,493.397,-86.9176,416.813,237.293,-143.927,365.498,191.864,70.901,420.425,192.092,57.4303,140.218,868.172,88.519,152.921,678.493,-33.6098,138.434,503.388,-150.884,174.462,327.36,-232.874,222.515,311.737,-46.3824,166.354,223.726
104,0,59.1945,489.044,1137.69,44.0913,214.665,1151.91,-155.259,407.366,1206.41,-154.84,302.879,1200.92,-31.3373,538.526,861.193,-58.5465,503.324,661.675,-110.306,496.847,493.356,-89.9456,416.701,237.227,-146.975,365.353,191.778,67.8145,420.331,192.033,58.2356,140.175,869.251,91.4852,153.088,679.977,-27.8632,138.341,503.35,-142.204,174.031,325.21,-223.963,221.912,307.848,-35.6573,166.035,223.875
105,0,58.0516,489.223,1137.35,42.4656,214.915,1152.29,-156.515,408.058,1206.37,-156.329,303.593,1201.03,-33.0914,538.534,860.97,-60.8062,503.246,661.525,-112.882,496.742,493.323,-92.9859,416.588,237.163,-150.039,365.202,191.694,64.7099,420.239,191.974,58.9001,140.123,870.332,94.1823,153.305,681.446,-22.0533,138.277,503.16,-133.062,173.592,322.699,-214.552,221.257,303.48,-24.3514,165.768,223.835
106,0,56.893,489.351,1137.01,40.8524,215.117,1152.66,-157.774,408.68,1206.34,-157.807,304.236,1201.14,-34.8235,538.497,860.746,-63.0405,503.132,661.381,-115.433,496.615,493.297,-96.0382,416.473,237.101,-153.119,365.046,191.612,61.5871,420.15,191.915,59.4238,140.063,871.411,96.6095,153.568,682.891,-16.1907,138.242,502.83,-123.482,173.151,319.87,-204.66,220.558,298.699,-12.5168,165.562,223.628
107,0,55.7207,489.43,1136.67,39.2574,215.272,1153.01,-159.032,409.232,1206.32,-159.27,304.809,1201.27,-36.5307,538.417,860.519,-65.2464,502.984,661.243,-117.957,496.466,493.277,-99.1022,416.356,237.04,-156.218,364.885,191.533,58.4462,420.063,191.854,59.8074,139.994,872.482,98.7677,153.878,684.302,-10.2876,138.238,502.372,-113.491,172.716,316.772,-194.311,219.828,293.574,-0.208773,165.422,223.283
108,0,54.5368,489.464,1136.34,37.6865,215.382,1153.36,-160.288,409.714,1206.3,-160.715,305.312,1201.41,-38.211,538.295,860.29,-67.4216,502.805,661.109,-120.452,496.297,493.262,-102.178,416.237,236.982,-159.335,364.72,191.459,55.2876,419.979,191.792,60.0523,139.918,873.538,100.659,154.23,685.671,-4.35744,138.263,501.802,-103.122,172.295,313.458,-183.533,219.077,288.178,12.5144,165.354,222.831
109,0,53.3432,489.454,1136.01,36.1456,215.45,1153.69,-161.536,410.127,1206.29,-162.136,305.746,1201.55,-39.8632,538.133,860.058,-69.5649,502.597,660.98,-122.916,496.11,493.251,-105.264,416.116,236.925,-162.473,364.549,191.39,52.1115,419.898,191.728,60.1606,139.832,874.573,102.287,154.623,686.987,1.58477,138.318,501.134,-92.4109,171.894,309.984,-172.356,218.318,282.585,25.5921,165.363,222.306
110,0,52.1421,489.406,1135.68,34.6409,215.477,1154.02,-162.775,410.47,1206.29,-163.529,306.111,1201.7,-41.4866,537.933,859.824,-71.6755,502.362,660.854,-125.35,495.906,493.244,-108.36,415.993,236.871,-165.633,364.375,191.325,48.9189,419.819,191.662,60.1354,139.737,875.58,103.657,155.051,688.242,7.5225,138.403,500.384,-81.3968,171.521,306.404,-160.819,217.564,276.872,38.962,165.45,221.741
111,0,50.9354,489.32,1135.35,33.1787,215.465,1154.32,-164.001,410.744,1206.29,-164.89,306.406,1201.86,-43.0813,537.696,859.586,-73.7536,502.103,660.733,-127.753,495.687,493.24,-111.467,415.867,236.819,-168.813,364.197,191.266,45.7105,419.742,191.595,59.9807,139.633,876.551,104.775,155.512,689.428,13.4378,138.518,499.568,-70.1236,171.184,302.775,-148.962,216.829,271.112,52.5605,165.62,221.17
112,0,49.7252,489.202,1135.03,31.7652,215.418,1154.62,-165.21,410.949,1206.29,-166.215,306.631,1202.02,-44.6479,537.426,859.346,-75.7998,501.822,660.613,-130.127,495.454,493.238,-114.582,415.738,236.768,-172.015,364.017,191.211,42.4875,419.667,191.526,59.7018,139.518,877.48,105.648,156.002,690.536,19.3111,138.663,498.703,-58.6383,170.891,299.15,-136.832,216.125,265.379,66.3232,165.874,220.627
113,0,48.5137,489.054,1134.7,30.4069,215.337,1154.9,-166.4,411.083,1206.29,-167.497,306.787,1202.18,-46.188,537.124,859.103,-77.8157,501.521,660.497,-132.473,495.21,493.237,-117.706,415.607,236.72,-175.237,363.836,191.161,39.2511,419.594,191.455,59.3047,139.391,878.358,106.284,156.515,691.559,25.1219,138.839,497.802,-46.9912,170.648,295.581,-124.479,215.466,259.74,80.1852,166.214,220.141
114,0,47.3029,488.879,1134.38,29.1101,215.225,1155.16,-167.566,411.147,1206.29,-168.734,306.873,1202.34,-47.7032,536.792,858.857,-79.8029,501.203,660.382,-134.793,494.955,493.237,-120.837,415.472,236.674,-178.479,363.654,191.116,36.0024,419.522,191.383,58.7969,139.253,879.181,106.693,157.047,692.49,30.8482,139.045,496.88,-35.2356,170.462,292.115,-111.957,214.864,254.257,94.0811,166.64,219.741
115,0,46.0951,488.681,1134.05,27.8812,215.083,1155.41,-168.706,411.14,1206.29,-169.919,306.889,1202.5,-49.1959,536.433,858.609,-81.764,500.87,660.268,-137.09,494.691,493.238,-123.975,415.334,236.631,-181.738,363.473,191.075,32.743,419.45,191.309,58.1868,139.103,879.939,106.882,157.593,693.323,36.467,139.282,495.949,-23.4277,170.338,288.794,-99.3263,214.332,248.987,107.946,167.153,219.448
116,0,44.8928,488.462,1133.71,26.7265,214.915,1155.63,-169.816,411.063,1206.29,-171.05,306.834,1202.65,-50.6688,536.048,858.358,-83.7013,500.524,660.154,-139.368,494.418,493.24,-127.119,415.194,236.59,-185.014,363.295,191.037,29.4739,419.38,191.235,57.4839,138.939,880.628,106.864,158.149,694.053,41.9545,139.549,495.019,-11.6259,170.282,285.654,-86.648,213.881,243.979,121.714,167.752,219.282
117,0,43.6983,488.227,1133.38,25.6521,214.722,1155.83,-170.893,410.914,1206.28,-172.12,306.709,1202.8,-52.1248,535.64,858.105,-85.618,500.166,660.041,-141.629,494.139,493.241,-130.268,415.05,236.551,-188.305,363.119,191.003,26.1963,419.31,191.159,56.6989,138.762,881.242,106.647,158.709,694.675,47.2862,139.846,494.1,0.109684,170.299,282.725,-73.9881,213.521,239.274,135.322,168.437,219.256
118,0,42.5143,487.979,1133.04,24.6642,214.507,1156.01,-171.932,410.693,1206.26,-173.127,306.513,1202.94,-53.567,535.21,857.85,-87.5168,499.797,659.928,-143.877,493.852,493.244,-133.421,414.903,236.515,-191.608,362.948,190.971,22.9112,419.241,191.083,55.8433,138.571,881.776,106.244,159.268,695.186,52.4374,140.173,493.198,11.7172,170.391,280.031,-61.4148,213.261,234.903,148.704,169.204,219.377
119,0,41.3434,487.718,1132.69,23.7684,214.271,1156.15,-172.931,410.4,1206.24,-174.065,306.246,1203.07,-54.9983,534.761,857.593,-89.4009,499.419,659.813,-146.117,493.559,493.246,-136.578,414.754,236.482,-194.921,362.781,190.942,19.6193,419.173,191.008,54.9296,138.367,882.226,105.664,159.823,695.583,57.3832,140.528,492.317,23.1339,170.561,277.587,-48.9983,213.108,230.889,161.797,170.05,219.647
120,0,40.1886,487.45,1132.33,22.9703,214.017,1156.27,-173.886,410.035,1206.21,-174.93,305.907,1203.18,-56.4218,534.294,857.334,-91.2729,499.033,659.698,-148.351,493.259,493.25,-139.738,414.601,236.45,-198.243,362.62,190.913,16.3211,419.106,190.932,53.9707,138.151,882.589,104.92,160.367,695.864,62.0987,140.911,491.461,34.297,170.81,275.402,-36.81,213.068,227.245,174.538,170.973,220.062
121,0,39.053,487.175,1131.97,22.2751,213.747,1156.37,-174.794,409.597,1206.17,-175.719,305.497,1203.29,-57.84,533.81,857.072,-93.1355,498.638,659.58,-150.583,492.953,493.255,-142.901,414.447,236.421,-201.572,362.464,190.886,13.0167,419.04,190.857,52.9804,137.922,882.862,104.021,160.897,696.028,66.5599,141.32,490.629,45.1439,171.139,273.477,-24.9214,213.145,223.978,186.867,171.964,220.612
122,0,37.9396,486.896,1131.6,21.6878,213.461,1156.43,-175.651,409.086,1206.12,-176.427,305.016,1203.38,-59.2551,533.311,856.807,-94.991,498.236,659.461,-152.817,492.64,493.261,-146.067,414.29,236.394,-204.906,362.315,190.859,9.70615,418.976,190.783,51.9726,137.682,883.044,102.979,161.408,696.076,70.7435,141.754,489.819,55.6131,171.546,271.807,-13.4038,213.34,221.084,198.723,173.019,221.282
123,0,36.852,486.614,1131.22,21.2128,213.163,1156.46,-176.453,408.504,1206.05,-177.051,304.463,1203.45,-60.6689,532.799,856.539,-96.8411,497.826,659.339,-155.056,492.318,493.269,-149.236,414.131,236.369,-208.245,362.171,190.831,6.38896,418.915,190.71,50.9613,137.432,883.135,101.806,161.895,696.008,74.6277,142.21,489.029,65.6453,172.03,270.382,-2.32666,213.654,218.55,210.049,174.127,222.052
124,0,35.7936,486.332,1130.84,20.854,212.852,1156.45,-177.198,407.849,1205.97,-177.588,303.839,1203.51,-62.0825,532.273,856.268,-98.6871,497.407,659.214,-157.3,491.987,493.28,-152.407,413.97,236.346,-211.587,362.033,190.803,3.06454,418.856,190.637,49.9607,137.172,883.136,100.511,162.356,695.826,78.1919,142.687,488.255,75.1835,172.585,269.184,8.24308,214.084,216.36,220.791,175.28,222.896
125,0,34.7681,486.049,1130.44,20.6149,212.529,1156.42,-177.882,407.123,1205.88,-178.034,303.145,1203.54,-63.496,531.735,855.993,-100.53,496.979,659.086,-159.553,491.646,493.293,-155.582,413.807,236.325,-214.932,361.9,190.773,-0.267901,418.801,190.566,48.9846,136.906,883.047,99.1043,162.785,695.533,81.4182,143.179,487.49,84.1746,173.209,268.192,18.2421,214.625,214.49,230.897,176.465,223.788
126,0,33.7794,485.766,1130.04,20.4985,212.197,1156.35,-178.502,406.325,1205.78,-178.388,302.38,1203.56,-64.9089,531.186,855.714,-102.368,496.54,658.955,-161.815,491.292,493.31,-158.76,413.642,236.305,-218.28,361.771,190.74,-3.6093,418.75,190.496,48.0461,136.634,882.872,97.5973,163.18,695.133,84.2906,143.686,486.727,92.57,173.895,267.381,27.6117,215.27,212.91,240.321,177.669,224.695
127,0,32.8314,485.484,1129.62,20.5072,211.855,1156.25,-179.055,405.458,1205.66,-178.646,301.547,1203.56,-66.3198,530.624,855.43,-104.202,496.09,658.821,-164.086,490.925,493.33,-161.944,413.476,236.287,-221.631,361.645,190.705,-6.96065,418.704,190.426,47.158,136.359,882.613,95.9995,163.537,694.63,86.7962,144.201,485.961,100.326,174.635,266.724,36.2991,216.012,211.589,249.02,178.88,225.586
128,0,31.9283,485.202,1129.2,20.6426,211.504,1156.12,-179.537,404.523,1205.52,-178.807,300.644,1203.54,-67.7261,530.051,855.142,-106.03,495.626,658.684,-166.364,490.541,493.356,-165.132,413.307,236.271,-224.985,361.522,190.667,-10.3229,418.662,190.356,46.332,136.082,882.275,94.3207,163.853,694.031,88.9252,144.72,485.183,107.406,175.422,266.191,44.2581,216.838,210.492,256.958,180.083,226.427
129,0,31.0742,484.919,1128.77,20.906,211.143,1155.97,-179.947,403.52,1205.38,-178.869,299.675,1203.5,-69.1245,529.466,854.847,-107.849,495.146,658.543,-168.649,490.139,493.387,-168.327,413.137,236.257,-228.342,361.4,190.626,-13.697,418.626,190.287,45.5788,135.804,881.863,92.5705,164.124,693.341,90.6712,145.239,484.388,113.78,176.248,265.751,51.4502,217.735,209.584,264.106,181.264,227.186
130,0,30.2734,484.635,1128.34,21.2976,210.772,1155.78,-180.282,402.452,1205.21,-178.831,298.64,1203.45,-70.5103,528.869,854.548,-109.655,494.648,658.4,-170.935,489.717,493.424,-171.529,412.963,236.246,-231.704,361.278,190.582,-17.0837,418.594,190.217,44.9078,135.529,881.382,90.7582,164.35,692.567,92.0316,145.751,483.568,119.425,177.102,265.377,57.8455,218.691,208.831,270.441,182.409,227.832
131,0,29.5301,484.347,1127.91,21.8174,210.391,1155.58,-180.538,401.319,1205.04,-178.693,297.54,1203.37,-71.8782,528.259,854.243,-111.443,494.131,658.253,-173.221,489.272,493.469,-174.738,412.787,236.24,-235.069,361.155,190.537,-20.4837,418.567,190.145,44.3274,135.257,880.839,88.8932,164.526,691.718,93.0074,146.25,482.72,124.326,177.975,265.038,63.4231,219.688,208.198,275.951,183.503,228.336
132,0,28.8488,484.053,1127.47,22.4643,209.998,1155.35,-180.715,400.126,1204.85,-178.453,296.378,1203.28,-73.2217,527.635,853.933,-113.21,493.591,658.105,-175.5,488.803,493.522,-177.954,412.606,236.238,-238.439,361.029,190.491,-23.8974,418.545,190.072,43.8441,134.991,880.24,86.9844,164.651,690.801,93.6041,146.731,481.839,128.477,178.855,264.711,68.172,220.71,207.654,280.63,184.535,228.674
133,0,28.2335,483.752,1127.04,23.2367,209.593,1155.1,-180.81,398.872,1204.65,-178.113,295.156,1203.17,-74.5335,526.996,853.618,-114.947,493.027,657.955,-177.767,488.306,493.585,-181.179,412.42,236.244,-241.814,360.899,190.447,-27.3249,418.526,189.996,43.4634,134.73,879.592,85.0409,164.722,689.826,93.8307,147.185,480.923,131.882,179.732,264.371,72.0912,221.741,207.172,284.483,185.494,228.827
134,0,27.6884,483.439,1126.61,24.1323,209.174,1154.84,-180.821,397.563,1204.44,-177.672,293.875,1203.05,-75.8056,526.342,853.3,-116.649,492.436,657.803,-180.015,487.781,493.659,-184.411,412.227,236.259,-245.193,360.763,190.407,-30.7663,418.509,189.918,43.1889,134.476,878.903,83.0715,164.739,688.802,93.7004,147.605,479.971,134.551,180.595,263.999,75.1897,222.763,206.728,287.523,186.37,228.779
135,0,27.2177,483.113,1126.19,25.1483,208.738,1154.56,-180.748,396.198,1204.23,-177.133,292.537,1202.91,-77.0293,525.672,852.979,-118.307,491.817,657.652,-182.235,487.225,493.746,-187.65,412.027,236.285,-248.577,360.619,190.376,-34.2213,418.495,189.837,43.0229,134.229,878.182,81.0851,164.7,687.739,93.2303,147.986,478.985,136.504,181.434,263.58,77.4867,223.76,206.302,289.772,187.156,228.522
136,0,26.8251,482.769,1125.78,26.2809,208.285,1154.28,-180.589,394.783,1204,-176.495,291.145,1202.76,-78.195,524.983,852.656,-119.911,491.167,657.502,-184.42,486.636,493.848,-190.896,411.818,236.327,-251.964,360.465,190.357,-37.6894,418.48,189.753,42.9661,133.99,877.435,79.0903,164.603,686.647,92.4407,148.318,477.966,137.77,182.237,263.104,79.011,224.715,205.878,291.263,187.847,228.054
137,0,26.5144,482.404,1125.39,27.526,207.811,1153.99,-180.344,393.318,1203.77,-175.762,289.702,1202.61,-79.293,524.276,852.334,-121.454,490.484,657.353,-186.56,486.014,493.966,-194.146,411.598,236.386,-255.353,360.3,190.358,-41.1699,418.464,189.666,43.0177,133.757,876.672,77.0957,164.448,685.536,91.3553,148.595,476.918,138.383,182.996,262.562,79.8003,225.616,205.446,292.036,188.441,227.379
138,0,26.2888,482.013,1125.02,28.8788,207.314,1153.7,-180.013,391.808,1203.54,-174.936,288.21,1202.45,-80.3132,523.548,852.014,-122.924,489.768,657.208,-188.646,485.358,494.102,-197.399,411.366,236.468,-258.744,360.121,190.384,-44.6618,418.446,189.576,43.1754,133.529,875.901,75.1097,164.235,684.416,90.0005,148.809,475.849,138.386,183.701,261.954,79.9003,226.449,205.001,292.138,188.938,226.506
139,0,26.1514,481.593,1124.68,30.3339,206.791,1153.42,-179.595,390.256,1203.3,-174.02,286.672,1202.28,-81.2453,522.8,851.698,-124.31,489.018,657.066,-190.666,484.667,494.26,-200.651,411.12,236.576,-262.135,359.926,190.444,-48.1637,418.423,189.485,43.4356,133.304,875.13,73.1406,163.963,683.299,88.4048,148.956,474.765,137.827,184.344,261.28,79.3637,227.203,204.539,291.624,189.338,225.45
140,0,26.1049,481.14,1124.36,31.8854,206.239,1153.14,-179.091,388.663,1203.06,-173.016,285.09,1202.11,-82.0788,522.029,851.39,-125.6,488.232,656.93,-192.611,483.942,494.44,-203.901,410.859,236.715,-265.523,359.713,190.546,-51.6742,418.394,189.392,43.7935,133.08,874.368,71.1963,163.631,682.192,86.5983,149.029,473.674,136.756,184.918,260.545,78.2487,227.872,204.064,290.552,189.648,224.232
141,0,26.1515,480.648,1124.08,33.5271,205.656,1152.88,-178.502,387.034,1202.83,-171.929,283.467,1201.94,-82.8035,521.234,851.091,-126.784,487.412,656.8,-194.468,483.184,494.647,-207.144,410.582,236.891,-268.907,359.48,190.7,-55.1914,418.358,189.299,44.2429,132.853,873.622,69.2846,163.242,681.107,84.6124,149.023,472.587,135.23,185.419,259.758,76.6175,228.448,203.578,288.986,189.871,222.876
142,0,26.2931,480.115,1123.84,35.2524,205.037,1152.63,-177.829,385.371,1202.6,-170.762,281.805,1201.77,-83.4093,520.416,850.805,-127.847,486.558,656.678,-196.228,482.394,494.881,-210.377,410.289,237.108,-272.286,359.227,190.916,-58.7132,418.313,189.207,44.7766,132.621,872.899,67.4128,162.796,680.051,82.4782,148.935,471.511,133.304,185.841,258.929,74.5346,228.929,203.089,286.99,190.015,221.409
143,0,26.5308,479.535,1123.64,37.0541,204.38,1152.39,-177.075,383.676,1202.37,-169.52,280.108,1201.6,-83.8864,519.573,850.534,-128.776,485.671,656.565,-197.878,481.575,495.146,-213.595,409.98,237.371,-275.656,358.953,191.206,-62.2373,418.258,189.118,45.3864,132.379,872.208,65.5877,162.294,679.033,80.2271,148.762,470.458,131.036,186.183,258.07,72.0653,229.315,202.605,284.628,190.089,219.86
144,0,26.8654,478.905,1123.49,38.9251,203.681,1152.18,-176.241,381.953,1202.15,-168.207,278.377,1201.44,-84.2254,518.705,850.282,-129.558,484.753,656.462,-199.406,480.73,495.443,-216.793,409.656,237.688,-279.016,358.658,191.58,-65.7611,418.193,189.031,46.0632,132.122,871.552,63.8156,161.737,678.06,77.8892,148.504,469.438,128.481,186.443,257.195,69.2739,229.607,202.134,281.964,190.103,218.258
145,0,27.297,478.222,1123.4,40.8579,202.938,1151.99,-175.33,380.205,1201.94,-166.828,276.616,1201.29,-84.4174,517.811,850.051,-130.18,483.808,656.369,-200.802,479.864,495.774,-219.967,409.319,238.063,-282.365,358.343,192.05,-69.2816,418.115,188.949,46.7972,131.846,870.94,62.1023,161.129,677.139,75.493,148.161,468.459,125.693,186.623,256.317,66.2224,229.81,201.685,279.059,190.065,216.635
146,0,27.8251,477.481,1123.36,42.8448,202.147,1151.82,-174.345,378.432,1201.74,-165.388,274.826,1201.14,-84.4541,516.891,849.843,-130.625,482.837,656.286,-202.054,478.98,496.142,-223.112,408.971,238.503,-285.7,358.011,192.628,-72.7959,418.026,188.872,47.578,131.547,870.373,60.4527,160.471,676.276,73.0649,147.736,467.53,122.722,186.724,255.449,62.9688,229.93,201.267,275.969,189.987,215.017
147,0,28.4484,476.68,1123.39,44.8781,201.307,1151.68,-173.289,376.638,1201.56,-163.893,273.009,1201.01,-84.3279,515.946,849.662,-130.88,481.847,656.216,-203.15,478.086,496.547,-226.224,408.616,239.014,-289.022,357.666,193.325,-76.3008,417.926,188.802,48.3945,131.217,869.857,58.871,159.766,675.474,70.6288,147.232,466.658,119.613,186.751,254.603,59.5663,229.973,200.887,272.745,189.877,213.433
148,0,29.1652,475.816,1123.48,46.9502,200.413,1151.57,-172.167,374.823,1201.38,-162.348,271.169,1200.89,-84.0318,514.976,849.51,-130.93,480.841,656.156,-204.078,477.188,496.991,-229.296,408.26,239.601,-292.327,357.313,194.153,-79.793,417.813,188.739,49.2354,130.854,869.394,57.3607,159.018,674.737,68.2056,146.655,465.85,116.407,186.709,253.791,56.0621,229.949,200.549,269.432,189.746,211.904
149,0,29.9729,474.887,1123.64,49.0533,199.464,1151.48,-170.982,372.991,1201.22,-160.758,269.306,1200.77,-83.5593,513.981,849.387,-130.759,479.824,656.108,-204.827,476.294,497.475,-232.325,407.909,240.272,-295.617,356.961,195.121,-83.2694,417.69,188.683,50.0893,130.45,868.984,55.9242,158.23,674.067,65.8129,146.013,465.111,113.14,186.605,253.022,52.497,229.868,200.258,266.069,189.603,210.451
150,0,30.8683,473.891,1123.87,51.1799,198.458,1151.42,-169.74,371.142,1201.07,-159.129,267.422,1200.67,-82.9048,512.964,849.296,-130.351,478.805,656.071,-205.385,475.411,497.999,-235.304,407.571,241.031,-298.891,356.617,196.241,-86.7267,417.557,188.634,50.9446,130.003,868.629,54.5632,157.405,673.464,63.4651,145.313,464.442,109.84,186.447,252.302,48.9051,229.739,200.016,262.687,189.456,209.09
151,0,31.8473,472.828,1124.17,53.3226,197.394,1151.39,-168.444,369.278,1200.93,-157.467,265.519,1200.59,-82.0634,511.924,849.238,-129.692,477.788,656.044,-205.741,474.549,498.564,-238.23,407.254,241.886,-302.146,356.293,197.52,-90.1621,417.415,188.592,51.79,129.507,868.327,53.2783,156.548,672.929,61.1732,144.565,463.846,106.532,186.244,251.637,45.3137,229.574,199.822,259.31,189.312,207.834
152,0,32.9053,471.697,1124.54,55.4742,196.27,1151.39,-167.101,367.399,1200.81,-155.777,263.599,1200.51,-81.0308,510.865,849.212,-128.765,476.781,656.026,-205.883,473.717,499.168,-241.096,406.967,242.842,-305.383,356.002,198.969,-93.5728,417.266,188.554,52.6144,128.959,868.076,52.0694,155.662,672.46,58.9448,143.781,463.322,103.234,186.005,251.03,41.7434,229.382,199.675,255.956,189.177,206.69
153,0,34.0371,470.497,1124.99,57.6277,195.085,1151.41,-165.716,365.506,1200.71,-154.065,261.662,1200.45,-79.8031,509.788,849.219,-127.555,475.793,656.017,-205.798,472.925,499.813,-243.896,406.721,243.906,-308.598,355.758,200.596,-96.9565,417.109,188.521,53.4073,128.356,867.872,50.9354,154.751,672.055,56.7843,142.971,462.868,99.9586,185.741,250.482,38.2089,229.173,199.571,252.638,189.057,205.662
154,0,35.2365,469.23,1125.51,59.7765,193.84,1151.45,-164.294,363.599,1200.61,-152.338,259.71,1200.39,-78.3774,508.695,849.257,-126.047,474.831,656.016,-205.475,472.183,500.496,-246.623,406.527,245.083,-311.789,355.575,202.409,-100.311,416.948,188.489,54.1591,127.694,867.713,49.8741,153.819,671.71,54.6936,142.148,462.48,96.7139,185.462,249.99,34.7194,228.957,199.507,249.362,188.954,204.751
155,0,36.4971,467.898,1126.09,61.9142,192.535,1151.51,-162.842,361.68,1200.53,-150.599,257.744,1200.35,-76.7509,507.591,849.327,-124.225,473.904,656.02,-204.901,471.501,501.218,-249.268,406.395,246.381,-314.949,355.471,204.416,-103.636,416.782,188.455,54.861,126.972,867.594,48.883,152.87,671.422,52.6717,141.322,462.153,93.5044,185.177,249.553,31.2794,228.742,199.475,246.13,188.873,203.954
156,0,37.8116,466.501,1126.75,64.0348,191.17,1151.6,-161.366,359.748,1200.46,-148.856,255.765,1200.32,-74.9216,506.478,849.425,-122.076,473.02,656.031,-204.064,470.889,501.977,-251.821,406.336,247.806,-318.072,355.462,206.626,-106.928,416.612,188.418,55.5052,126.188,867.508,47.9584,151.906,671.184,50.7155,140.505,461.882,90.3309,184.895,249.165,27.8895,228.536,199.472,242.941,188.815,203.265
157,0,39.1723,465.043,1127.47,66.1326,189.747,1151.69,-159.871,357.803,1200.4,-147.113,253.773,1200.3,-72.8878,505.36,849.552,-119.584,472.187,656.045,-202.95,470.355,502.774,-254.269,406.361,249.363,-321.146,355.564,209.047,-110.189,416.439,188.374,56.0853,125.342,867.449,47.0962,150.932,670.993,48.8204,139.707,461.66,87.1918,184.625,248.822,24.5473,228.346,199.489,239.791,188.779,202.677
158,0,40.5711,463.526,1128.25,68.2026,188.267,1151.8,-158.366,355.845,1200.34,-145.375,251.769,1200.28,-70.648,504.241,849.704,-116.738,471.415,656.064,-201.545,469.91,503.608,-256.599,406.478,251.062,-324.158,355.793,211.689,-113.418,416.262,188.32,56.5964,124.435,867.412,46.2917,149.95,670.841,46.9804,138.939,461.479,84.0836,184.374,248.517,21.2482,228.176,199.521,236.672,188.767,202.18
159,0,41.9995,461.955,1129.08,70.2398,186.734,1151.92,-156.855,353.875,1200.29,-143.649,249.755,1200.26,-68.2014,503.127,849.879,-113.524,470.71,656.087,-199.838,469.561,504.48,-258.792,406.696,252.908,-327.09,356.162,214.563,-116.615,416.083,188.254,57.035,123.468,867.39,45.5395,148.962,670.724,45.1884,138.207,461.331,81.0016,184.148,248.244,17.9865,228.03,199.561,233.579,188.777,201.764
160,0,43.4485,460.333,1129.96,72.2397,185.15,1152.04,-155.346,351.891,1200.25,-141.937,247.73,1200.25,-65.5472,502.022,850.077,-109.932,470.081,656.115,-197.815,469.315,505.39,-260.83,407.02,254.909,-329.919,356.684,217.681,-119.781,415.899,188.173,57.399,122.442,867.376,44.8339,147.971,670.634,43.4371,137.519,461.208,77.9404,183.951,247.996,14.7554,227.912,199.605,230.504,188.806,201.418
161,0,44.9091,458.666,1130.89,74.1984,183.519,1152.16,-153.844,349.894,1200.2,-140.246,245.695,1200.25,-62.685,500.932,850.294,-105.953,469.535,656.148,-195.462,469.177,506.341,-262.69,407.454,257.075,-332.618,357.366,221.057,-122.918,415.711,188.076,57.6883,121.361,867.364,44.1691,146.978,670.565,41.7189,136.88,461.101,74.8946,183.786,247.766,11.5485,227.822,199.646,227.438,188.853,201.13
162,0,46.3721,456.958,1131.86,76.1123,181.845,1152.28,-152.357,347.884,1200.16,-138.579,243.651,1200.24,-59.6148,499.861,850.531,-101.58,469.077,656.189,-192.767,469.152,507.334,-264.347,408,259.414,-335.157,358.214,224.705,-126.026,415.516,187.963,57.904,120.227,867.347,43.5386,145.984,670.512,40.0265,136.292,461.005,71.8594,183.654,247.548,8.35955,227.761,199.682,224.376,188.915,200.888
163,0,47.828,455.215,1132.86,77.978,180.132,1152.39,-150.89,345.861,1200.11,-136.942,241.599,1200.23,-56.3368,498.817,850.787,-96.8065,468.714,656.241,-189.719,469.242,508.374,-265.776,408.656,261.934,-337.498,359.228,228.643,-129.108,415.314,187.837,58.0489,119.044,867.319,42.9361,144.991,670.468,38.3527,135.756,460.911,68.8304,183.555,247.337,5.18314,227.727,199.709,221.312,188.989,200.684
164,0,49.2677,453.442,1133.88,79.7927,178.384,1152.49,-149.45,343.825,1200.06,-135.337,239.539,1200.21,-52.8515,497.805,851.061,-91.6307,468.45,656.307,-186.307,469.449,509.466,-266.946,409.418,264.646,-339.602,360.403,232.886,-132.162,415.102,187.701,58.1269,117.818,867.276,42.3551,143.998,670.428,36.6912,135.273,460.813,65.8043,183.487,247.128,2.01495,227.718,199.724,218.242,189.07,200.506
165,0,50.682,451.646,1134.92,81.5539,176.608,1152.58,-148.042,341.777,1200,-133.769,237.472,1200.19,-49.1599,496.831,851.356,-86.0522,468.289,656.392,-182.523,469.771,510.615,-267.829,410.279,267.559,-341.425,361.729,237.454,-135.191,414.881,187.562,58.1433,116.554,867.212,41.7888,143.006,670.386,35.0363,134.838,460.706,62.779,183.448,246.916,-1.14817,227.729,199.726,215.162,189.156,200.347
166,0,52.0621,449.832,1135.96,83.2592,174.807,1152.65,-146.672,339.716,1199.94,-132.242,235.4,1200.16,-45.2635,495.902,851.672,-80.074,468.231,656.501,-178.358,470.206,511.827,-268.395,411.227,270.682,-342.922,363.189,242.364,-138.193,414.647,187.429,58.1042,115.256,867.123,41.2308,142.014,670.339,33.3828,134.449,460.586,59.7531,183.432,246.699,-4.30816,227.758,199.716,212.072,189.242,200.199
167,0,53.3994,448.007,1137.01,84.9069,172.989,1152.7,-145.346,337.643,1199.87,-130.758,233.323,1200.13,-41.1644,495.023,852.014,-73.7022,468.28,656.643,-173.809,470.748,513.111,-268.615,412.25,274.026,-344.043,364.762,247.63,-141.165,414.4,187.314,58.0163,113.931,867.005,40.6746,141.024,670.282,31.7266,134.099,460.448,56.7265,183.434,246.475,-7.46578,227.799,199.691,208.972,189.325,200.056
168,0,54.6857,446.177,1138.06,86.4952,171.159,1152.74,-144.068,335.56,1199.79,-129.321,231.242,1200.08,-36.8652,494.2,852.384,-66.9465,468.433,656.823,-168.874,471.391,514.475,-268.461,413.332,277.596,-344.741,366.42,253.267,-144.102,414.141,187.233,57.8867,112.585,866.856,40.1136,140.034,670.213,30.0639,133.784,460.291,53.7001,183.45,246.242,-10.6207,227.846,199.655,205.861,189.402,199.912
169,0,55.9133,444.348,1139.09,88.0228,169.323,1152.75,-142.843,333.468,1199.69,-127.934,229.16,1200.02,-32.3696,493.438,852.79,-59.8203,468.689,657.051,-163.555,472.126,515.928,-267.909,414.452,281.4,-344.97,368.129,259.285,-146.998,413.868,187.203,57.7226,111.224,866.674,39.5417,139.045,670.127,28.3917,133.495,460.112,50.6752,183.473,245.999,-13.7717,227.895,199.607,202.744,189.47,199.765
170,0,57.0753,442.525,1140.11,89.4884,167.487,1152.73,-141.675,331.367,1199.59,-126.598,227.078,1199.95,-27.6821,492.744,853.236,-52.3405,469.046,657.336,-157.857,472.941,517.479,-266.935,415.591,285.441,-344.686,369.851,265.687,-149.84,413.584,187.245,57.531,109.855,866.458,38.9528,138.056,670.024,26.7076,133.225,459.912,47.6542,183.497,245.748,-16.9168,227.94,199.55,199.622,189.525,199.612
171,0,58.1651,440.716,1141.11,90.891,165.657,1152.69,-140.569,329.261,1199.47,-125.317,224.997,1199.87,-22.8084,492.12,853.731,-44.5282,469.497,657.688,-151.79,473.824,519.136,-265.524,416.725,289.72,-343.85,371.544,272.469,-152.613,413.291,187.381,57.3182,108.484,866.207,38.3412,137.068,669.901,25.0094,132.967,459.691,44.6394,183.516,245.489,-20.0534,227.976,199.484,196.5,189.567,199.451
172,0,59.1772,438.925,1142.08,92.2298,163.839,1152.62,-139.527,327.15,1199.34,-124.093,222.919,1199.78,-17.7555,491.571,854.282,-36.4083,470.038,658.117,-145.365,474.761,520.91,-263.661,417.832,294.235,-342.428,373.164,279.622,-155.296,412.992,187.636,57.0901,107.117,865.921,37.7015,136.081,669.759,23.2954,132.714,459.449,41.6335,183.526,245.223,-23.1787,228,199.413,193.381,189.592,199.282
173,0,60.1065,437.158,1143.02,93.5041,162.039,1152.52,-138.553,325.038,1199.2,-122.927,220.847,1199.68,-12.5319,491.099,854.898,-28.0094,470.661,658.632,-138.602,475.736,522.807,-261.34,418.888,298.976,-340.397,374.663,287.123,-157.861,412.693,188.034,56.8513,105.76,865.601,37.0286,135.096,669.596,21.564,132.459,459.189,38.6394,183.522,244.953,-26.2898,228.007,199.339,190.27,189.6,199.105
174,0,60.9489,435.419,1143.92,94.7131,160.261,1152.4,-137.65,322.927,1199.05,-121.821,218.784,1199.56,-7.14755,490.708,855.588,-19.3638,471.357,659.244,-131.522,476.732,524.833,-258.559,419.869,303.931,-337.738,375.995,294.94,-160.275,412.398,188.599,56.6054,104.42,865.25,36.3178,134.115,669.413,19.8137,132.197,458.913,35.6594,183.5,244.681,-29.3836,227.995,199.262,187.169,189.59,198.922
175,0,61.7013,433.713,1144.8,95.8564,158.513,1152.24,-136.82,320.819,1198.9,-120.776,216.731,1199.43,-1.61433,490.397,856.361,-10.5073,472.117,659.963,-124.15,477.733,526.992,-255.319,420.753,309.08,-334.447,377.115,303.028,-162.496,412.116,189.353,56.3549,103.102,864.869,35.5651,133.139,669.211,18.0432,131.923,458.624,32.696,183.46,244.409,-32.4576,227.964,199.185,184.084,189.562,198.733
176,0,62.3612,432.044,1145.63,96.9334,156.799,1152.07,-136.064,318.719,1198.73,-119.795,214.692,1199.3,4.0541,490.168,857.226,-1.47865,472.93,660.797,-116.517,478.719,529.285,-251.631,421.519,314.397,-330.525,377.982,311.331,-164.476,411.856,190.314,56.101,101.81,864.461,34.7669,132.17,668.991,16.2513,131.633,458.325,29.7508,183.398,244.14,-35.5092,227.913,199.109,181.017,189.517,198.54
177,0,62.927,430.416,1146.43,97.9436,155.122,1151.86,-135.384,316.629,1198.57,-118.877,212.669,1199.15,9.84206,490.018,858.191,7.68055,473.784,661.754,-108.654,479.673,531.713,-247.507,422.15,319.847,-325.989,378.56,319.778,-166.157,411.627,191.497,55.8436,100.551,864.03,33.9202,131.211,668.755,14.4369,131.325,458.019,26.8254,183.315,243.877,-38.5366,227.841,199.036,177.972,189.457,198.345
178,0,63.3982,428.832,1147.19,98.8867,153.489,1151.63,-134.78,314.554,1198.4,-118.023,210.666,1199,15.7319,489.945,859.265,16.9265,474.667,662.841,-100.598,480.577,534.27,-242.964,422.63,325.39,-320.861,378.819,328.287,-167.475,411.439,192.911,55.5813,99.3277,863.578,33.0227,130.266,668.503,12.5989,130.999,457.709,23.9206,183.212,243.621,-41.5385,227.753,198.966,174.949,189.381,198.151
179,0,63.775,427.294,1147.91,99.762,151.902,1151.38,-134.253,312.497,1198.23,-117.235,208.687,1198.84,21.7038,489.947,860.452,26.2135,475.566,664.061,-92.3867,481.415,536.949,-238.021,422.949,330.977,-315.175,378.737,336.764,-168.358,411.306,194.557,55.312,98.145,863.111,32.0729,129.337,668.239,10.7364,130.655,457.399,21.0368,183.091,243.376,-44.514,227.649,198.9,171.952,189.294,197.96
180,0,64.0584,425.804,1148.6,100.569,150.366,1151.11,-133.804,310.463,1198.06,-116.512,206.733,1198.68,27.736,490.019,861.759,35.4947,476.469,665.418,-84.0587,482.169,539.737,-232.7,423.099,336.553,-308.972,378.303,345.106,-168.729,411.237,196.43,55.0324,97.0059,862.632,31.0697,128.428,667.964,8.84881,130.294,457.092,18.1738,182.954,243.144,-47.4631,227.533,198.839,168.98,189.197,197.773
181,0,64.2502,424.365,1149.25,101.308,148.882,1150.82,-133.43,308.456,1197.9,-115.855,204.81,1198.51,33.8047,490.154,863.188,44.7229,477.362,666.912,-75.6542,482.826,542.62,-227.023,423.077,342.054,-302.301,377.515,353.199,-168.505,411.245,198.517,54.7387,95.9137,862.146,30.0131,127.544,667.681,6.93577,129.919,456.79,15.3312,182.805,242.925,-50.3861,227.408,198.782,166.033,189.093,197.592
182,0,64.3532,422.976,1149.88,101.977,147.454,1150.51,-133.131,306.481,1197.75,-115.264,202.921,1198.34,39.8842,490.346,864.74,53.8505,478.231,668.542,-67.2129,483.373,545.577,-221.01,422.887,347.415,-295.214,376.384,360.927,-167.6,411.339,200.796,54.4264,94.8707,861.657,28.9036,126.687,667.391,4.99724,129.533,456.497,12.5079,182.647,242.722,-53.2842,227.279,198.731,163.11,188.985,197.419
183,0,64.3705,421.64,1150.48,102.577,146.084,1150.18,-132.907,304.541,1197.61,-114.739,201.07,1198.18,45.9471,490.587,866.414,62.8307,479.063,670.304,-58.7736,483.799,548.585,-214.682,422.535,352.563,-287.764,374.93,368.166,-165.927,411.528,203.235,54.0908,93.8789,861.169,27.7426,125.863,667.098,3.03354,129.141,456.213,9.70248,182.484,242.535,-56.1591,227.149,198.684,160.212,188.876,197.254
184,0,64.3062,420.357,1151.05,103.107,144.772,1149.85,-132.754,302.643,1197.48,-114.279,199.261,1198.02,51.9646,490.868,868.206,71.6178,479.847,672.192,-50.3735,484.096,551.618,-208.056,422.031,357.425,-280.005,373.184,374.797,-163.401,411.82,205.799,53.727,92.9399,860.686,26.5319,125.074,666.802,1.04543,128.748,455.941,6.91338,182.32,242.365,-59.0129,227.021,198.643,157.334,188.768,197.1
185,0,64.1649,419.125,1151.6,103.567,143.52,1149.5,-132.672,300.791,1197.38,-113.885,197.497,1197.86,57.9063,491.18,870.109,80.1682,480.57,674.195,-42.0471,484.26,554.646,-201.143,421.391,361.925,-271.989,371.188,380.702,-159.94,412.218,208.442,53.3303,92.0548,860.213,25.2742,124.325,666.505,-0.965947,128.359,455.683,4.13869,182.158,242.212,-61.8482,226.899,198.606,154.476,188.665,196.955
186,0,63.9516,417.946,1152.14,103.956,142.329,1149.14,-132.657,298.989,1197.29,-113.555,195.783,1197.71,63.7412,491.512,872.115,88.4402,481.221,676.304,-33.8266,484.286,557.637,-193.953,420.634,365.989,-263.761,368.991,385.77,-155.47,412.724,211.118,52.8961,91.2241,859.752,23.9724,123.62,666.211,-2.99902,127.979,455.439,1.37638,182.003,242.075,-64.6679,226.786,198.574,151.633,188.569,196.821
187,0,63.6718,416.819,1152.66,104.274,141.198,1148.77,-132.707,297.242,1197.23,-113.289,194.123,1197.57,69.4375,491.854,874.213,96.3952,481.79,678.503,-25.7401,484.176,560.555,-186.492,419.783,369.548,-255.361,366.65,389.898,-149.926,413.336,213.773,52.4202,90.4481,859.306,22.6302,122.96,665.919,-5.05187,127.612,455.21,-1.37571,181.857,241.956,-67.4752,226.683,198.547,148.804,188.48,196.697
188,0,63.3315,415.742,1153.17,104.52,140.127,1148.4,-132.819,295.555,1197.2,-113.087,192.52,1197.45,74.963,492.194,876.389,103.998,482.267,680.778,-17.8127,483.933,563.366,-178.758,418.862,372.536,-246.817,364.227,393.002,-143.256,414.048,216.356,51.8988,89.7266,858.879,21.2514,122.349,665.632,-7.12227,127.264,454.996,-4.11976,181.723,241.851,-70.2735,226.592,198.524,145.985,188.403,196.583
189,0,62.9369,414.715,1153.67,104.695,139.116,1148.03,-132.988,293.932,1197.19,-112.946,190.979,1197.33,80.2858,492.523,878.625,111.216,482.645,683.11,-10.0651,483.561,566.034,-170.748,417.896,374.896,-238.15,361.784,395.008,-135.423,414.85,218.816,51.3287,89.0589,858.471,19.84,121.788,665.35,-9.20773,126.939,454.797,-6.85797,181.603,241.762,-73.0661,226.514,198.505,143.172,188.336,196.479
190,0,62.4945,413.736,1154.17,104.799,138.163,1147.65,-133.212,292.377,1197.21,-112.866,189.502,1197.23,85.3744,492.829,880.906,118.021,482.917,685.479,-2.51438,483.069,568.522,-162.454,416.913,376.579,-229.368,359.386,395.864,-126.405,415.73,221.105,50.7071,88.4443,858.084,18.4002,121.28,665.075,-11.3056,126.641,454.612,-9.59247,181.498,241.685,-75.8564,226.449,198.49,140.362,188.281,196.382
191,0,62.0111,412.804,1154.67,104.832,137.267,1147.27,-133.487,290.896,1197.26,-112.845,188.095,1197.14,90.1983,493.101,883.209,124.39,483.077,687.865,4.8261,482.468,570.797,-153.864,415.94,377.547,-220.468,357.094,395.538,-116.2,416.674,223.181,50.032,87.8813,857.72,16.9362,120.823,664.806,-13.4133,126.372,454.44,-12.3253,181.409,241.62,-78.6476,226.396,198.479,137.552,188.237,196.293
192,0,61.4934,411.919,1155.16,104.793,136.426,1146.89,-133.808,289.491,1197.34,-112.881,186.759,1197.07,94.7284,493.331,885.515,130.303,483.123,690.246,11.9465,481.77,572.826,-144.967,415.001,377.777,-211.436,354.962,394.018,-104.824,417.663,225.01,49.3016,87.3686,857.378,15.4517,120.42,664.545,-15.5282,126.135,454.281,-15.0585,181.337,241.566,-81.4428,226.355,198.473,134.739,188.205,196.211
193,0,60.9484,411.078,1155.65,104.685,135.639,1146.51,-134.172,288.166,1197.45,-112.974,185.499,1197.02,98.9373,493.509,887.801,135.744,483.05,692.6,18.8401,480.987,574.58,-135.746,414.12,377.256,-202.249,353.041,391.317,-92.3124,418.679,226.566,48.5149,86.9045,857.057,13.9507,120.068,664.291,-17.6479,125.931,454.134,-17.7937,181.28,241.52,-84.2448,226.324,198.47,131.919,188.184,196.133
194,0,60.383,410.281,1156.15,104.507,134.902,1146.13,-134.572,286.925,1197.59,-113.12,184.316,1196.98,102.8,493.627,890.044,140.701,482.859,694.903,25.5027,480.136,576.034,-126.19,413.319,375.986,-192.876,351.37,387.467,-78.7184,419.704,227.834,47.6711,86.4869,856.758,12.4363,119.767,664.045,-19.7702,125.761,453.996,-20.5327,181.238,241.48,-87.0561,226.302,198.47,129.091,188.171,196.059
195,0,59.8042,409.526,1156.64,104.261,134.214,1145.76,-135.006,285.77,1197.77,-113.318,183.215,1196.96,106.293,493.679,892.22,145.167,482.548,697.132,31.9321,479.23,577.165,-116.285,412.615,373.985,-183.277,349.98,382.522,-64.1132,420.721,228.811,46.7701,86.1138,856.478,10.9115,119.515,663.806,-21.8934,125.624,453.867,-23.277,181.209,241.446,-89.8788,226.287,198.473,126.252,188.167,195.988
196,0,59.2188,408.813,1157.13,103.949,133.573,1145.39,-135.468,284.704,1197.97,-113.566,182.198,1196.95,109.398,493.658,894.307,149.14,482.121,699.267,38.1278,478.285,577.958,-106.022,412.022,371.281,-173.413,348.892,376.558,-48.5832,421.712,229.503,45.8119,85.7829,856.216,9.37844,119.31,663.575,-24.0161,125.521,453.746,-26.028,181.193,241.415,-92.7147,226.277,198.479,123.4,188.17,195.917
197,0,58.6337,408.14,1157.62,103.572,132.975,1145.02,-135.952,283.73,1198.19,-113.859,181.266,1196.97,112.098,493.561,896.283,152.619,481.579,701.285,44.0898,477.315,578.401,-95.3972,411.552,367.918,-163.241,348.116,369.666,-32.228,422.665,229.927,44.797,85.4921,855.97,7.83893,119.148,663.35,-26.1377,125.448,453.631,-28.7867,181.188,241.385,-95.5654,226.27,198.486,120.533,188.176,195.848
198,0,58.0554,407.506,1158.1,103.131,132.419,1144.65,-136.455,282.849,1198.45,-114.197,180.422,1196.99,114.38,493.385,898.127,155.608,480.928,703.167,49.8188,476.335,578.488,-84.4104,411.21,363.951,-152.721,347.65,361.953,-15.1582,423.566,230.11,43.726,85.2389,855.738,6.29401,119.026,663.132,-28.2579,125.405,453.52,-31.5544,181.191,241.356,-98.432,226.265,198.495,117.651,188.186,195.777
199,0,57.4905,406.911,1158.58,102.631,131.901,1144.28,-136.971,282.063,1198.72,-114.575,179.667,1197.03,116.235,493.129,899.819,158.115,480.172,704.895,55.315,475.357,578.219,-73.0692,410.999,359.447,-141.819,347.484,353.538,2.50756,424.41,230.086,42.6001,85.0211,855.518,4.74409,118.942,662.919,-30.3772,125.389,453.413,-34.332,181.201,241.326,-101.315,226.259,198.504,114.752,188.196,195.704
200,0,56.9455,406.355,1159.05,102.073,131.42,1143.92,-137.495,281.372,1199.02,-114.991,179.003,1197.09,117.658,492.793,901.34,160.15,479.317,706.452,60.5779,474.393,577.599,-61.3889,410.918,354.478,-130.509,347.602,344.55,20.6449,425.189,229.895,41.4203,84.8363,855.307,3.18895,118.89,662.712,-32.4966,125.396,453.308,-37.1203,181.215,241.293,-104.216,226.251,198.514,111.836,188.206,195.629
201,0,56.4263,405.835,1159.51,101.461,130.973,1143.55,-138.021,280.779,1199.33,-115.44,178.43,1197.15,118.647,492.378,902.677,161.727,478.371,707.824,65.6063,473.452,576.639,-49.3935,410.962,349.128,-118.776,347.977,335.124,39.1263,425.901,229.583,40.1882,84.6824,855.104,1.62774,118.868,662.509,-34.6177,125.423,453.206,-39.9203,181.232,241.258,-107.134,226.241,198.522,108.903,188.213,195.552
202,0,55.9391,405.354,1159.95,100.799,130.558,1143.19,-138.545,280.282,1199.66,-115.919,177.949,1197.23,119.208,491.888,903.816,162.862,477.342,708.999,70.3972,472.541,575.355,-37.1159,411.124,343.48,-106.619,348.581,325.397,57.8235,426.546,229.195,38.9056,84.5571,854.905,0.0590722,118.871,662.311,-36.7428,125.467,453.104,-42.7328,181.249,241.219,-110.071,226.227,198.529,105.952,188.216,195.47
203,0,55.4894,404.909,1160.36,100.089,130.172,1142.83,-139.062,279.882,1200,-116.425,177.56,1197.31,119.347,491.328,904.746,163.571,476.239,709.969,74.9468,471.667,573.766,-24.5987,411.393,337.622,-94.0515,349.379,315.505,76.6091,427.126,228.776,37.5745,84.4584,854.708,-1.51896,118.895,662.116,-38.8747,125.524,453.002,-45.5585,181.266,241.175,-113.025,226.208,198.533,102.983,188.213,195.386
204,0,55.0828,404.501,1160.76,99.3375,129.815,1142.46,-139.566,279.579,1200.34,-116.952,177.263,1197.4,119.076,490.702,905.46,163.876,475.07,710.726,79.2493,470.833,571.896,-11.8941,411.757,331.642,-81.1045,350.337,305.582,95.3581,427.642,228.369,36.1971,84.3844,854.513,-3.10865,118.937,661.924,-41.0165,125.591,452.9,-48.3983,181.28,241.127,-115.997,226.185,198.534,99.9971,188.205,195.297
205,0,54.7246,404.13,1161.13,98.548,129.484,1142.09,-140.052,279.371,1200.69,-117.497,177.058,1197.49,118.411,490.017,905.953,163.798,473.845,711.267,83.2978,470.042,569.774,0.936466,412.201,325.626,-67.8257,351.419,295.754,113.949,428.097,228.011,34.776,84.3333,854.317,-4.71262,118.993,661.734,-43.1716,125.665,452.799,-51.2531,181.29,241.074,-118.986,226.157,198.53,96.9936,188.189,195.206
206,0,54.4195,403.795,1161.46,97.7258,129.177,1141.72,-140.515,279.258,1201.03,-118.055,176.943,1197.59,117.372,489.281,906.225,163.359,472.575,711.59,87.0843,469.294,567.427,13.8229,412.711,319.653,-54.2803,352.59,286.138,132.265,428.493,227.733,33.3141,84.3035,854.118,-6.33368,119.059,661.547,-45.3439,125.741,452.697,-54.124,181.296,241.017,-121.994,226.123,198.523,93.9729,188.165,195.111
207,0,54.1723,403.497,1161.76,96.876,128.894,1141.34,-140.951,279.239,1201.37,-118.621,176.919,1197.68,115.984,488.503,906.276,162.584,471.27,711.698,90.5996,468.588,564.89,26.687,413.27,313.798,-40.5501,353.818,276.84,150.193,428.832,227.555,31.8144,84.2934,853.915,-7.9747,119.134,661.361,-47.5372,125.817,452.595,-57.012,181.296,240.956,-125.018,226.085,198.51,90.935,188.133,195.013
208,0,53.9874,403.236,1162.02,96.0042,128.634,1140.95,-141.354,279.311,1201.7,-119.191,176.982,1197.77,114.275,487.691,906.112,161.497,469.939,711.593,93.8341,467.923,562.193,39.444,413.861,308.128,-26.7323,355.072,267.953,167.626,429.113,227.493,30.2804,84.3016,853.708,-9.63855,119.215,661.177,-49.7554,125.891,452.494,-59.9182,181.289,240.89,-128.061,226.041,198.492,87.8799,188.091,194.913
209,0,53.8686,403.012,1162.23,95.1161,128.397,1140.56,-141.722,279.472,1202.02,-119.76,177.132,1197.86,112.274,486.856,905.739,160.123,468.594,711.282,96.7778,467.296,559.37,52.0039,414.47,302.699,-12.9371,356.325,259.554,184.463,429.333,227.547,28.7157,84.327,853.495,-11.3279,119.3,660.993,-52.002,125.96,452.393,-62.8438,181.275,240.822,-131.121,225.993,198.468,84.8075,188.041,194.812
210,0,53.8197,402.824,1162.4,94.2176,128.181,1140.16,-142.048,279.721,1202.33,-120.323,177.366,1197.94,110.015,486.006,905.167,158.487,467.245,710.774,99.421,466.702,556.454,64.2731,415.08,297.56,0.714505,357.554,251.706,200.607,429.491,227.713,27.124,84.3683,853.276,-13.045,119.388,660.81,-54.2807,126.023,452.293,-65.7902,181.253,240.751,-134.199,225.94,198.439,81.7177,187.981,194.708
211,0,53.8439,402.672,1162.52,93.3147,127.986,1139.76,-142.329,280.054,1202.61,-120.874,177.682,1198.01,107.534,485.152,904.409,156.616,465.902,710.079,101.755,466.139,553.476,76.1564,415.677,292.745,14.094,358.739,244.455,215.969,429.579,227.976,25.5095,84.4247,853.05,-14.792,119.477,660.627,-56.5944,126.078,452.195,-68.7586,181.224,240.678,-137.295,225.883,198.404,78.6103,187.912,194.604
212,0,53.944,402.558,1162.59,92.4135,127.813,1139.34,-142.562,280.47,1202.88,-121.409,178.078,1198.06,104.868,484.304,903.48,154.534,464.575,709.21,103.77,465.604,550.466,87.5593,416.246,288.282,27.0691,359.863,237.831,230.463,429.593,228.312,23.8764,84.4952,852.817,-16.5702,119.568,660.444,-58.9456,126.125,452.099,-71.7504,181.188,240.604,-140.409,225.822,198.364,75.4849,187.834,194.499
213,0,54.1227,402.479,1162.61,91.5202,127.663,1138.91,-142.743,280.965,1203.13,-121.923,178.551,1198.11,102.057,483.472,902.395,152.265,463.274,708.181,105.46,465.091,547.453,98.3897,416.775,284.184,39.5073,360.915,231.848,244.015,429.525,228.692,22.229,84.5791,852.576,-18.3803,119.661,660.26,-61.3363,126.164,452.006,-74.7667,181.145,240.53,-143.543,225.758,198.318,72.3411,187.746,194.394
214,0,54.3819,402.437,1162.58,90.6411,127.536,1138.48,-142.868,281.535,1203.35,-122.41,179.098,1198.14,99.1384,482.665,901.172,149.834,462.008,707.006,106.821,464.599,544.46,108.561,417.254,280.456,51.2797,361.883,226.504,256.555,429.368,229.082,20.5719,84.676,852.327,-20.2226,119.758,660.076,-63.7676,126.194,451.917,-77.8088,181.095,240.457,-146.695,225.69,198.267,69.1785,187.649,194.288
215,0,54.7231,402.432,1162.49,89.782,127.432,1138.03,-142.935,282.179,1203.55,-122.867,179.716,1198.16,96.1527,481.893,899.831,147.264,460.788,705.703,107.847,464.126,541.511,117.993,417.673,277.093,62.2656,362.763,221.785,268.024,429.115,229.444,18.9095,84.7854,852.069,-22.0962,119.859,659.89,-66.2398,126.217,451.831,-80.8776,181.039,240.385,-149.868,225.619,198.211,65.9965,187.543,194.182
216,0,55.1476,402.462,1162.36,88.9491,127.353,1137.57,-142.942,282.893,1203.72,-123.288,180.401,1198.16,93.1382,481.164,898.392,144.577,459.62,704.287,108.538,463.668,538.626,126.615,418.025,274.082,72.3556,363.549,217.663,278.374,428.762,229.742,17.2466,84.9072,851.803,-23.9996,119.966,659.703,-68.7525,126.235,451.75,-83.974,180.979,240.316,-153.061,225.546,198.152,62.7946,187.428,194.076
217,0,55.656,402.527,1162.17,88.1481,127.301,1137.1,-142.886,283.673,1203.86,-123.67,181.151,1198.15,90.1319,480.487,896.874,141.793,458.515,702.776,108.895,463.225,535.821,134.368,418.304,271.402,81.4554,364.24,214.1,287.569,428.304,229.938,15.5879,85.0415,851.527,-25.9303,120.084,659.514,-71.3043,126.249,451.674,-87.0985,180.915,240.249,-156.274,225.47,198.089,59.5724,187.304,193.969
218,0,56.2485,402.628,1161.94,87.3847,127.276,1136.62,-142.765,284.516,1203.98,-124.007,181.963,1198.12,87.1694,479.869,895.299,138.932,457.48,701.188,108.922,462.798,533.11,141.207,418.506,269.028,89.4889,364.837,211.049,295.584,427.742,230,13.9384,85.1887,851.242,-27.8851,120.214,659.323,-73.8926,126.262,451.603,-90.2514,180.849,240.186,-159.509,225.393,198.023,56.3293,187.172,193.862
219,0,56.9246,402.764,1161.67,86.6641,127.281,1136.12,-142.579,285.419,1204.07,-124.296,182.832,1198.07,84.2836,479.317,893.686,136.013,456.521,699.54,108.624,462.387,530.504,147.098,418.631,266.929,96.4004,365.342,208.46,302.411,427.079,229.9,12.3029,85.3495,850.946,-29.8595,120.359,659.128,-76.5143,126.278,451.539,-93.4326,180.782,240.128,-162.766,225.315,197.955,53.065,187.033,193.755
220,0,57.6837,402.935,1161.35,85.9914,127.317,1135.62,-142.326,286.378,1204.14,-124.534,183.756,1198,81.5046,478.836,892.056,133.051,455.647,697.849,108.01,461.994,528.01,152.024,418.677,265.072,102.157,365.759,206.275,308.055,426.32,229.617,10.6866,85.525,850.64,-31.8485,120.525,658.931,-79.1649,126.299,451.48,-96.6414,180.718,240.076,-166.044,225.236,197.886,49.7794,186.886,193.647
221,0,58.5245,403.141,1160.99,85.3712,127.386,1135.11,-142.006,287.391,1204.18,-124.717,184.731,1197.92,78.8592,478.432,890.427,130.062,454.862,696.132,107.091,461.622,525.634,155.984,418.649,263.423,106.747,366.092,204.439,312.539,425.476,229.135,9.09466,85.7164,850.322,-33.846,120.715,658.73,-81.8394,126.329,451.428,-99.8771,180.657,240.029,-169.343,225.159,197.816,46.4722,186.734,193.538
222,0,59.445,403.381,1160.6,84.8077,127.491,1134.59,-141.62,288.453,1204.2,-124.842,185.754,1197.81,76.3703,478.109,888.817,127.06,454.172,694.405,105.882,461.274,523.379,158.992,418.549,261.95,110.185,366.347,202.895,315.9,424.562,228.448,7.53253,85.9256,849.992,-35.8453,120.934,658.525,-84.5315,126.373,451.383,-103.138,180.603,239.989,-172.663,225.084,197.747,43.1437,186.575,193.428
223,0,60.4431,403.654,1160.19,84.3048,127.632,1134.07,-141.166,289.563,1204.19,-124.907,186.822,1197.7,74.0571,477.87,887.243,124.057,453.581,692.683,104.398,460.955,521.248,161.076,418.383,260.62,112.505,366.53,201.591,318.19,423.595,227.56,6.00577,86.1546,849.649,-37.8388,121.185,658.316,-87.2346,126.435,451.344,-106.423,180.559,239.957,-176.002,225.013,197.679,39.7941,186.413,193.318
224,0,61.5161,403.963,1159.75,83.8657,127.812,1133.54,-140.646,290.716,1204.17,-124.91,187.932,1197.56,71.9347,477.716,885.72,121.063,453.094,690.981,102.657,460.67,519.239,162.279,418.159,259.404,113.763,366.649,200.479,319.477,422.596,226.479,4.52012,86.4061,849.292,-39.8183,121.474,658.102,-89.9411,126.519,451.312,-109.728,180.526,239.934,-179.361,224.948,197.615,36.4242,186.248,193.207
225,0,62.6608,404.305,1159.29,83.4934,128.034,1133.01,-140.062,291.911,1204.13,-124.849,189.081,1197.42,70.0138,477.649,884.261,118.089,452.712,689.31,100.681,460.424,517.351,162.656,417.886,258.277,114.033,366.712,199.517,319.839,421.587,225.223,3.08151,86.6828,848.922,-41.7749,121.804,657.883,-92.6427,126.63,451.288,-113.052,180.508,239.921,-182.736,224.892,197.556,33.0349,186.081,193.096
226,0,63.8738,404.681,1158.83,83.1902,128.299,1132.48,-139.414,293.144,1204.07,-124.723,190.267,1197.26,68.3012,477.669,882.878,115.143,452.438,687.684,98.49,460.223,515.583,162.273,417.573,257.215,113.405,366.724,198.671,319.368,420.592,223.815,1.69603,86.9879,848.538,-43.6995,122.179,657.66,-95.331,126.773,451.271,-116.39,180.508,239.919,-186.126,224.847,197.504,29.6276,185.915,192.986
227,0,65.1511,405.092,1158.35,82.9578,128.608,1131.95,-138.704,294.413,1204,-124.531,191.487,1197.09,66.7996,477.776,881.58,112.232,452.273,686.113,96.1088,460.073,513.93,161.204,417.23,256.202,111.98,366.696,197.913,318.159,419.637,222.283,0.36991,87.3248,848.139,-45.5824,122.605,657.432,-97.997,126.951,451.262,-119.739,180.529,239.93,-189.528,224.816,197.461,26.2038,185.751,192.875
228,0,66.4885,405.537,1157.88,82.7976,128.965,1131.43,-137.936,295.716,1203.92,-124.274,192.738,1196.91,65.5079,477.967,880.375,109.364,452.216,684.607,93.5618,459.981,512.39,159.529,416.869,255.225,109.865,366.634,197.221,316.317,418.744,220.659,-0.890535,87.697,847.727,-47.4137,123.083,657.199,-100.631,127.168,451.261,-123.094,180.574,239.954,-192.94,224.801,197.431,22.7657,185.59,192.766
229,0,67.8816,406.018,1157.41,82.7102,129.369,1130.92,-137.111,297.051,1203.84,-123.951,194.02,1196.72,64.4214,478.239,879.268,106.544,452.266,683.173,90.8743,459.952,510.958,157.333,416.501,254.275,107.175,366.547,196.583,313.946,417.935,218.977,-2.07894,88.1082,847.301,-49.1833,123.617,656.961,-103.225,127.429,451.268,-126.451,180.644,239.994,-196.358,224.806,197.417,19.3157,185.435,192.658
230,0,69.3256,406.534,1156.96,82.6959,129.824,1130.42,-136.232,298.416,1203.74,-123.564,195.331,1196.52,63.5323,478.59,878.263,103.777,452.422,681.818,88.0721,459.991,509.632,154.699,416.136,253.347,104.021,366.442,195.99,311.149,417.229,217.27,-3.18898,88.562,846.862,-50.881,124.21,656.72,-105.768,127.736,451.283,-129.804,180.742,240.051,-199.778,224.832,197.423,15.8565,185.288,192.551
231,0,70.8155,407.087,1156.52,82.7542,130.33,1129.93,-135.302,299.809,1203.65,-123.113,196.668,1196.32,62.8302,479.015,877.361,101.068,452.679,680.548,85.1808,460.104,508.407,151.712,415.784,252.44,100.511,366.328,195.438,308.026,416.641,215.57,-4.21443,89.0619,846.412,-52.4966,124.862,656.475,-108.252,128.091,451.308,-133.149,180.87,240.128,-203.197,224.883,197.454,12.3911,185.151,192.447
232,0,72.3464,407.677,1156.1,82.8843,130.889,1129.46,-134.326,301.23,1203.55,-122.601,198.031,1196.12,62.3019,479.511,876.564,98.4219,453.034,679.367,82.2256,460.294,507.28,148.452,415.456,251.554,96.7477,366.21,194.929,304.67,416.178,213.907,-5.14924,89.6111,845.953,-54.0201,125.576,656.227,-110.668,128.497,451.342,-136.48,181.028,240.227,-206.611,224.96,197.515,8.92289,185.025,192.346
233,0,73.9129,408.305,1155.7,83.0848,131.502,1129.02,-133.305,302.677,1203.45,-122.03,199.419,1195.92,61.9327,480.07,875.868,95.8428,453.482,678.277,79.2306,460.565,506.246,144.992,415.158,250.693,92.8226,366.095,194.464,301.163,415.847,212.307,-5.98764,90.2126,845.487,-55.4414,126.351,655.978,-113.008,128.954,451.387,-139.792,181.217,240.35,-210.016,225.065,197.613,5.45531,184.911,192.247
234,0,75.5098,408.973,1155.34,83.3538,132.17,1128.6,-132.245,304.149,1203.36,-121.401,200.831,1195.72,61.7062,480.69,875.27,93.3344,454.017,677.281,76.2188,460.917,505.303,141.4,414.897,249.862,88.8156,365.99,194.046,297.58,415.647,210.793,-6.72421,90.8689,845.017,-56.751,127.186,655.727,-115.262,129.462,451.443,-143.08,181.437,240.5,-213.408,225.198,197.753,1.99188,184.812,192.152
235,0,77.1318,409.681,1155,83.6889,132.893,1128.22,-131.148,305.646,1203.28,-120.719,202.267,1195.52,61.6051,481.363,874.765,90.9003,454.632,676.378,73.2113,461.352,504.448,137.735,414.679,249.067,84.7939,365.898,193.681,293.981,415.571,209.381,-7.35391,91.582,844.546,-57.9392,128.08,655.477,-117.424,130.022,451.511,-146.338,181.685,240.679,-216.783,225.359,197.942,-1.46383,184.728,192.061
236,0,78.7736,410.43,1154.7,84.0874,133.671,1127.86,-130.02,307.167,1203.2,-119.987,203.727,1195.33,61.6113,482.084,874.348,88.544,455.321,675.567,70.2275,461.868,503.676,134.046,414.506,248.313,80.811,365.824,193.369,290.416,415.608,208.082,-7.87222,92.3531,844.079,-58.9968,129.031,655.229,-119.487,130.63,451.593,-149.562,181.96,240.892,-220.139,225.548,198.188,-4.90838,184.659,191.973
237,0,80.4299,411.222,1154.44,84.5461,134.506,1127.55,-128.863,308.712,1203.13,-119.208,205.211,1195.15,61.7068,482.848,874.01,86.2685,456.076,674.847,67.2844,462.462,502.985,130.373,414.379,247.606,76.9068,365.771,193.114,286.92,415.745,206.902,-8.27508,93.1829,843.618,-59.9148,130.036,654.983,-121.443,131.286,451.689,-152.747,182.259,241.142,-223.471,225.761,198.498,-8.33851,184.607,191.89
238,0,82.0956,412.057,1154.21,85.0614,135.397,1127.27,-127.683,310.28,1203.07,-118.386,206.718,1194.97,61.8734,483.649,873.744,84.0765,456.888,674.214,64.3967,463.131,502.37,126.749,414.297,246.95,73.1085,365.738,192.915,283.518,415.963,205.844,-8.55898,94.0712,843.169,-60.6843,131.09,654.741,-123.288,131.984,451.801,-155.889,182.578,241.431,-226.777,225.995,198.881,-11.7512,184.57,191.811
239,0,83.7656,412.937,1154.02,85.6293,136.343,1127.04,-126.483,311.873,1203.02,-117.526,208.25,1194.8,62.0936,484.483,873.542,81.9706,457.751,673.665,61.5764,463.869,501.828,123.194,414.258,246.349,69.4314,365.727,192.769,280.224,416.243,204.905,-8.72092,95.0173,842.737,-61.297,132.188,654.505,-125.015,132.721,451.931,-158.985,182.913,241.764,-230.056,226.246,199.343,-15.1439,184.549,191.737
240,0,85.4349,413.863,1153.87,86.2458,137.346,1126.86,-125.268,313.49,1202.98,-116.633,209.806,1194.64,62.3504,485.344,873.392,79.9527,458.655,673.194,58.8334,464.668,501.355,119.722,414.258,245.804,65.881,365.736,192.673,277.043,416.563,204.077,-8.75838,96.0194,842.326,-61.7442,133.325,654.275,-126.619,133.492,452.08,-162.031,183.257,242.145,-233.305,226.509,199.892,-18.5143,184.543,191.666
241,0,87.0988,414.835,1153.75,86.9063,138.403,1126.72,-124.042,315.131,1202.95,-115.71,211.387,1194.49,62.6279,486.228,873.287,78.0244,459.593,672.797,56.1747,465.522,500.947,116.339,414.291,245.316,62.4539,365.763,192.621,273.97,416.903,203.354,-8.66928,97.0751,841.941,-62.0179,134.494,654.053,-128.095,134.291,452.249,-165.024,183.605,242.577,-236.524,226.775,200.537,-21.8607,184.55,191.598
242,0,88.7526,415.855,1153.66,87.606,139.514,1126.64,-122.81,316.796,1202.93,-114.763,212.993,1194.36,62.9111,487.132,873.217,76.1865,460.557,672.467,53.6053,466.42,500.598,113.047,414.351,244.885,59.1407,365.805,192.607,270.996,417.243,202.722,-8.45188,98.1814,841.588,-62.1099,135.688,653.84,-129.439,135.111,452.442,-167.962,183.949,243.065,-239.71,227.038,201.283,-25.1817,184.568,191.534
243,0,90.392,416.922,1153.61,88.3401,140.678,1126.61,-121.574,318.486,1202.93,-113.796,214.625,1194.24,63.1865,488.054,873.173,74.4395,461.541,672.197,51.1277,467.353,500.305,109.839,414.431,244.508,55.9269,365.858,192.624,268.107,417.566,202.171,-8.10472,99.3345,841.27,-62.0119,136.9,653.637,-130.646,135.945,452.659,-170.841,184.283,243.613,-242.864,227.288,202.139,-28.4766,184.597,191.471
244,0,92.0126,418.038,1153.59,89.1036,141.894,1126.63,-120.34,320.201,1202.93,-112.815,216.284,1194.13,63.4417,488.989,873.145,72.783,462.537,671.982,48.7427,468.312,500.063,106.709,414.523,244.182,52.7953,365.916,192.664,265.286,417.856,201.687,-7.6265,100.53,840.992,-61.7158,138.121,653.444,-131.712,136.785,452.902,-173.66,184.599,244.225,-245.984,227.517,203.111,-31.745,184.633,191.41
245,0,93.6103,419.202,1153.59,89.8912,143.16,1126.71,-119.112,321.941,1202.95,-111.825,217.969,1194.03,63.6659,489.937,873.126,71.2161,463.539,671.814,46.4491,469.286,499.865,103.644,414.621,243.901,49.7271,365.976,192.719,262.513,418.101,201.26,-7.01599,101.763,840.757,-61.2136,139.344,653.261,-132.631,137.624,453.175,-176.416,184.89,244.905,-249.07,227.715,204.205,-34.987,184.675,191.348
246,0,95.1815,420.414,1153.62,90.6977,144.474,1126.84,-117.893,323.706,1202.97,-110.831,219.68,1193.94,63.8497,490.897,873.108,69.737,464.542,671.686,44.2446,470.266,499.707,100.632,414.717,243.662,46.7036,366.032,192.782,259.77,418.293,200.876,-6.27191,103.028,840.568,-60.4969,140.56,653.09,-133.399,138.453,453.479,-179.105,185.149,245.659,-252.12,227.871,205.428,-38.2031,184.719,191.284
247,0,96.7222,421.674,1153.66,91.5177,145.835,1127.03,-116.688,325.496,1203.01,-109.838,221.419,1193.87,63.9851,491.869,873.084,68.3434,465.543,671.591,42.1255,471.241,499.583,97.6599,414.805,243.458,43.7073,366.08,192.849,257.04,418.427,200.526,-5.39282,104.32,840.428,-59.5575,141.759,652.93,-134.011,139.265,453.816,-181.726,185.367,246.49,-255.132,227.977,206.785,-41.3943,184.765,191.217
248,0,98.2292,422.981,1153.72,92.3459,147.241,1127.27,-115.5,327.31,1203.05,-108.851,223.184,1193.81,64.0657,492.851,873.048,67.0321,466.536,671.523,40.0872,472.203,499.488,94.7158,414.88,243.284,40.7222,366.117,192.912,254.306,418.501,200.201,-4.37713,105.632,840.338,-58.3871,142.933,652.782,-134.461,140.05,454.19,-184.273,185.54,247.405,-258.104,228.025,208.283,-44.5616,184.809,191.144
249,0,99.6992,424.333,1153.79,93.177,148.688,1127.56,-114.332,329.149,1203.09,-107.874,224.976,1193.75,64.0866,493.844,872.995,65.7992,467.52,671.474,38.1247,473.144,499.416,91.7879,414.939,243.134,37.7349,366.139,192.968,251.554,418.515,199.895,-3.22297,106.959,840.298,-56.9775,144.074,652.643,-134.742,140.802,454.602,-186.744,185.661,248.407,-261.031,228.006,209.928,-47.7065,184.85,191.065
250,0,101.129,425.73,1153.87,94.0057,150.175,1127.91,-113.19,331.011,1203.14,-106.914,226.794,1193.71,64.0441,494.85,872.922,64.6401,468.493,671.439,36.2323,474.058,499.364,88.8663,414.979,243.002,34.7347,366.145,193.015,248.774,418.475,199.603,-1.92823,108.296,840.308,-55.3207,145.174,652.515,-134.849,141.513,455.056,-189.133,185.725,249.503,-263.908,227.913,211.728,-50.8305,184.885,190.977
251,0,102.516,427.169,1153.95,94.8267,151.699,1128.3,-112.075,332.896,1203.19,-105.973,228.636,1193.67,63.9362,495.87,872.825,63.5496,469.454,671.413,34.4043,474.94,499.324,85.9429,414.998,242.883,31.7137,366.134,193.05,245.958,418.387,199.319,-0.490557,109.635,840.368,-53.4089,146.223,652.396,-134.775,142.176,455.554,-191.435,185.729,250.699,-266.728,227.744,213.688,-53.9353,184.913,190.879
252,0,103.856,428.649,1154.03,95.635,153.257,1128.73,-110.991,334.802,1203.23,-105.058,230.503,1193.64,63.762,496.903,872.702,62.5218,470.401,671.389,32.6349,475.786,499.294,83.0116,414.996,242.772,28.6666,366.104,193.074,243.099,418.257,199.043,1.09253,110.972,840.474,-51.2347,147.216,652.286,-134.513,142.785,456.1,-193.643,185.671,252,-269.483,227.494,215.818,-57.0225,184.934,190.771
253,0,105.149,430.167,1154.1,96.4255,154.846,1129.21,-109.942,336.728,1203.28,-104.172,232.393,1193.62,63.5217,497.953,872.554,61.5503,471.337,671.363,30.9183,476.593,499.269,80.0685,414.975,242.665,25.5909,366.059,193.086,240.196,418.094,198.773,2.82355,112.301,840.624,-48.7915,148.144,652.184,-134.055,143.333,456.698,-195.75,185.549,253.415,-272.163,227.164,218.127,-60.0936,184.945,190.653
254,0,106.391,431.72,1154.16,97.1935,156.463,1129.72,-108.931,338.673,1203.32,-103.32,234.303,1193.59,63.2167,499.019,872.379,60.6281,472.261,671.332,29.2488,477.36,499.245,77.1117,414.936,242.559,22.486,365.998,193.088,237.247,417.909,198.508,4.70493,113.616,840.815,-46.0732,149.001,652.09,-133.394,143.816,457.35,-197.748,185.363,254.95,-274.756,226.755,220.623,-63.1501,184.947,190.525
255,0,107.579,433.305,1154.22,97.9341,158.105,1130.27,-107.96,340.635,1203.36,-102.505,236.234,1193.57,62.8494,500.103,872.178,59.7477,473.175,671.291,27.6209,478.089,499.218,74.1408,414.884,242.451,19.3535,365.926,193.081,234.256,417.709,198.251,6.73878,114.914,841.042,-43.0749,149.783,652.002,-132.523,144.231,458.061,-199.628,185.117,256.614,-277.249,226.273,223.318,-66.1927,184.939,190.39
256,0,108.712,434.919,1154.25,98.6429,159.767,1130.84,-107.033,342.611,1203.39,-101.731,238.181,1193.54,62.4227,501.205,871.953,58.9015,474.082,671.237,26.0291,478.78,499.186,71.1574,414.82,242.339,16.1965,365.844,193.068,231.225,417.503,198,8.92667,116.188,841.301,-39.7932,150.483,651.921,-131.435,144.573,458.834,-201.381,184.813,258.416,-279.626,225.724,226.222,-69.2219,184.922,190.25
257,0,109.788,436.559,1154.27,99.3157,161.447,1131.44,-106.152,344.6,1203.42,-101.002,240.144,1193.51,61.9405,502.326,871.705,58.0812,474.982,671.169,24.4682,479.436,499.146,68.164,414.751,242.221,13.019,365.756,193.049,228.158,417.3,197.759,11.2694,117.435,841.586,-36.2258,151.099,651.847,-130.123,144.842,459.675,-202.997,184.456,260.363,-281.871,225.118,229.348,-72.2374,184.896,190.111
258,0,110.805,438.221,1154.27,99.9483,163.141,1132.05,-105.321,346.598,1203.43,-100.322,242.119,1193.47,61.4067,503.467,871.438,57.2784,475.879,671.084,22.9328,480.061,499.096,65.1642,414.679,242.096,9.82605,365.666,193.028,225.063,417.105,197.527,13.7668,118.651,841.893,-32.3724,151.626,651.781,-128.581,145.035,460.586,-204.467,184.053,262.466,-283.967,224.466,232.707,-75.2379,184.862,189.979
259,0,111.761,439.9,1154.24,100.537,164.845,1132.67,-104.54,348.603,1203.43,-99.692,244.104,1193.43,60.8257,504.626,871.152,56.4846,476.774,670.981,21.4176,480.659,499.034,62.162,414.608,241.963,6.6231,365.577,193.006,221.944,416.924,197.305,16.4174,119.832,842.218,-28.2347,152.064,651.722,-126.805,145.154,461.572,-205.779,183.61,264.732,-285.897,223.781,236.31,-78.221,184.821,189.861
260,0,112.654,441.593,1154.19,101.078,166.555,1133.31,-103.814,350.611,1203.42,-99.1164,246.095,1193.37,60.2017,505.803,870.852,55.691,477.669,670.859,19.9173,481.233,498.958,59.1621,414.544,241.823,3.41571,365.491,192.986,218.808,416.761,197.095,19.2182,120.975,842.555,-23.8165,152.411,651.673,-124.791,145.199,462.637,-206.924,183.137,267.169,-287.641,223.081,240.168,-81.1829,184.773,189.768
261,0,113.484,443.296,1154.12,101.568,168.266,1133.94,-103.143,352.621,1203.39,-98.5974,248.091,1193.31,59.5391,506.997,870.54,54.8891,478.567,670.719,18.4261,481.79,498.869,56.1687,414.488,241.675,0.209395,365.411,192.967,215.662,416.618,196.896,22.1644,122.077,842.9,-19.1242,152.668,651.636,-122.537,145.173,463.785,-207.892,182.642,269.786,-289.181,222.38,244.288,-84.1179,184.719,189.711
262,0,114.248,445.004,1154.02,102.004,169.977,1134.57,-102.53,354.628,1203.35,-98.1373,250.086,1193.23,58.8416,508.207,870.218,54.0703,479.469,670.559,16.9384,482.334,498.764,53.1862,414.443,241.521,-2.99065,365.339,192.951,212.512,416.497,196.709,25.2494,123.136,843.25,-14.1665,152.835,651.613,-120.041,145.078,465.018,-208.672,182.137,272.588,-290.5,221.696,248.678,-87.0183,184.662,189.703
263,0,114.945,446.712,1153.9,102.383,171.681,1135.19,-101.977,356.629,1203.29,-97.7383,252.079,1193.14,58.1128,509.429,869.89,53.2261,480.376,670.382,15.4481,482.869,498.644,50.2181,414.413,241.359,-6.17967,365.277,192.939,209.364,416.397,196.532,28.4646,124.149,843.603,-8.95478,152.914,651.606,-117.306,144.919,466.34,-209.256,181.63,275.579,-291.582,221.048,253.34,-89.8739,184.6,189.756
264,0,115.575,448.417,1153.75,102.703,173.376,1135.79,-101.486,358.621,1203.22,-97.4021,254.065,1193.03,57.3554,510.663,869.557,52.3484,481.289,670.186,13.949,483.399,498.509,47.2676,414.397,241.191,-9.35353,365.225,192.93,206.223,416.317,196.366,31.7992,125.114,843.956,-3.50321,152.91,651.621,-114.334,144.7,467.75,-209.636,181.134,278.76,-292.412,220.454,258.272,-92.6721,184.536,189.887
265,0,116.136,450.115,1153.58,102.962,175.057,1136.39,-101.057,360.6,1203.14,-97.1305,256.04,1192.91,56.5716,511.905,869.221,51.4297,482.208,669.974,12.4348,483.928,498.36,44.3371,414.397,241.019,-12.5087,365.183,192.924,203.095,416.257,196.208,35.2404,126.03,844.309,2.17146,152.825,651.661,-111.129,144.428,469.251,-209.802,180.659,282.13,-292.975,219.93,263.469,-95.3968,184.469,190.11
266,0,116.628,451.799,1153.38,103.157,176.72,1136.96,-100.694,362.563,1203.03,-96.9248,258.002,1192.77,55.763,513.152,868.885,50.4625,483.132,669.747,10.8991,484.458,498.196,41.4279,414.412,240.842,-15.6425,365.151,192.922,199.983,416.213,196.059,38.7731,126.897,844.661,8.04983,152.666,651.73,-107.699,144.109,470.842,-209.749,180.215,285.684,-293.261,219.494,268.918,-98.029,184.401,190.441
267,0,117.049,453.468,1153.16,103.286,178.362,1137.5,-100.395,364.505,1202.91,-96.786,259.946,1192.62,54.9303,514.4,868.551,49.4402,484.061,669.506,9.33523,484.993,498.019,38.5407,414.442,240.661,-18.7528,365.13,192.922,196.89,416.182,195.917,42.3806,127.712,845.014,14.11,152.438,651.833,-104.051,143.75,472.519,-209.471,179.812,289.412,-293.26,219.159,274.599,-100.546,184.331,190.892
268,0,117.4,455.115,1152.92,103.349,179.979,1138.02,-100.164,366.424,1202.78,-96.7153,261.87,1192.45,54.0735,515.646,868.218,48.3569,484.993,669.254,7.73691,485.532,497.83,35.6752,414.486,240.479,-21.8383,365.117,192.922,193.82,416.163,195.781,46.0444,128.478,845.37,20.3279,152.148,651.977,-100.196,143.358,474.28,-208.96,179.459,293.303,-292.965,218.94,280.488,-102.921,184.261,191.478
269,0,117.68,456.738,1152.66,103.343,181.568,1138.52,-99.9993,368.316,1202.63,-96.7131,263.768,1192.27,53.1922,516.887,867.888,47.2073,485.927,668.99,6.09793,486.078,497.63,32.8303,414.541,240.295,-24.8986,365.111,192.924,190.773,416.151,195.65,49.7444,129.192,845.732,26.6772,151.804,652.166,-96.1465,142.943,476.119,-208.213,179.163,297.336,-292.372,218.845,286.551,-105.125,184.19,192.209
270,0,117.888,458.332,1152.38,103.269,183.124,1138.98,-99.903,370.178,1202.47,-96.7801,265.638,1192.08,52.2852,518.118,867.562,45.9868,486.859,668.719,4.41247,486.629,497.422,30.0041,414.607,240.111,-27.9336,365.112,192.924,187.752,416.144,195.524,53.4596,129.857,846.104,33.13,151.413,652.405,-91.9157,142.512,478.028,-207.225,178.932,301.49,-291.478,218.882,292.747,-107.122,184.119,193.094
271,0,118.026,459.893,1152.08,103.125,184.645,1139.42,-99.8752,372.005,1202.3,-96.9165,267.476,1191.87,51.3509,519.334,867.24,44.6919,487.787,668.441,2.67522,487.185,497.206,27.1941,414.681,239.928,-30.944,365.117,192.924,184.755,416.139,195.402,57.1682,130.473,846.491,39.6568,150.985,652.701,-87.5183,142.074,479.998,-205.991,178.771,305.736,-290.282,219.056,299.026,-108.877,184.048,194.137
272,0,118.091,461.418,1151.77,102.911,186.127,1139.82,-99.9161,373.796,1202.12,-97.1224,269.279,1191.66,50.3876,520.533,866.923,43.3199,488.708,668.158,0.881525,487.744,496.984,24.3972,414.761,239.747,-33.931,365.126,192.921,181.784,416.135,195.283,60.848,131.042,846.897,46.2272,150.528,653.059,-82.9702,141.637,482.018,-204.508,178.682,310.04,-288.786,219.368,305.334,-110.347,183.977,195.34
273,0,118.086,462.904,1151.44,102.625,187.567,1140.2,-100.026,375.547,1201.93,-97.3976,271.044,1191.44,49.3934,521.709,866.611,41.869,489.618,667.872,-0.972505,488.304,496.759,21.6099,414.844,239.57,-36.8963,365.137,192.915,178.835,416.129,195.169,64.477,131.565,847.328,52.8102,150.051,653.484,-78.2879,141.21,484.076,-202.771,178.668,314.366,-286.991,219.814,311.607,-111.489,183.907,196.7
274,0,118.01,464.345,1151.11,102.27,188.963,1140.55,-100.204,377.255,1201.74,-97.7419,272.767,1191.21,48.3661,522.859,866.304,40.3384,490.513,667.586,-2.88986,488.862,496.533,18.8285,414.929,239.397,-39.8418,365.147,192.906,175.909,416.119,195.058,68.0338,132.045,847.789,59.3744,149.563,653.98,-73.4882,140.799,486.155,-200.774,178.728,318.67,-284.9,220.388,317.776,-112.257,183.838,198.209
275,0,117.864,465.741,1150.77,101.843,190.312,1140.87,-100.45,378.917,1201.54,-98.1547,274.446,1190.98,47.3041,523.977,866.003,38.7283,491.389,667.3,-4.87254,489.416,496.307,16.049,415.014,239.229,-42.7697,365.157,192.892,173.001,416.105,194.952,71.4977,132.484,848.287,65.8886,149.074,654.55,-68.5881,140.414,488.241,-198.514,178.861,322.906,-282.516,221.082,323.769,-112.602,183.77,199.855
276,0,117.648,467.087,1150.42,101.346,191.611,1141.17,-100.764,380.531,1201.34,-98.6354,276.077,1190.76,46.2057,525.061,865.708,37.0395,492.241,667.016,-6.92154,489.963,496.084,13.2678,415.097,239.068,-45.6825,365.164,192.874,170.111,416.085,194.85,74.8495,132.885,848.826,72.3224,148.593,655.199,-63.6044,140.06,490.316,-195.984,179.063,327.027,-279.842,221.882,329.508,-112.477,183.703,201.621
277,0,117.364,468.381,1150.07,100.779,192.859,1141.45,-101.145,382.095,1201.14,-99.1832,277.659,1190.54,45.0698,526.105,865.419,35.2741,493.066,666.735,-9.03674,490.498,495.865,10.4811,415.177,238.913,-48.5826,365.168,192.851,167.233,416.061,194.753,78.0719,133.25,849.412,78.6461,148.127,655.929,-58.5531,139.744,492.361,-193.176,179.328,330.981,-276.878,222.772,334.917,-111.832,183.638,203.487
278,0,117.011,469.621,1149.71,100.143,194.054,1141.71,-101.592,383.607,1200.95,-99.797,279.189,1190.33,43.8956,527.106,865.137,33.4345,493.858,666.459,-11.217,491.018,495.652,7.68561,415.252,238.766,-51.4726,365.168,192.822,164.365,416.03,194.662,81.1492,133.582,850.05,84.8317,147.686,656.741,-53.4495,139.471,494.357,-190.083,179.649,334.717,-273.625,223.734,339.916,-110.621,183.573,205.428
279,0,116.592,470.803,1149.35,99.4377,195.193,1141.96,-102.104,385.064,1200.76,-100.476,280.665,1190.14,42.6829,528.059,864.862,31.5241,494.614,666.19,-13.4602,491.52,495.447,4.87826,415.322,238.627,-54.3551,365.161,192.789,161.502,415.994,194.576,84.0682,133.883,850.742,90.8527,147.276,657.636,-48.3077,139.246,496.285,-186.697,180.019,338.182,-270.083,224.749,344.431,-108.799,183.507,207.414
280,0,116.106,471.926,1148.99,98.6651,196.276,1142.2,-102.679,386.465,1200.59,-101.218,282.084,1189.96,41.4318,528.962,864.596,29.5468,495.329,665.927,-15.7634,492.001,495.251,2.05657,415.385,238.496,-57.2324,365.148,192.749,158.641,415.954,194.495,86.8179,134.157,851.493,96.6847,146.905,658.613,-43.1406,139.072,498.126,-183.007,180.428,341.328,-266.247,225.794,348.388,-106.324,183.441,209.416
281,0,115.556,472.988,1148.63,97.8261,197.301,1142.43,-103.316,387.809,1200.42,-102.022,283.446,1189.8,40.143,529.81,864.338,27.507,496.001,665.672,-18.1226,492.456,495.066,-0.78145,415.441,238.373,-60.1071,365.128,192.703,155.778,415.908,194.42,89.3899,134.404,852.303,102.305,146.578,659.671,-37.9595,138.951,499.861,-179.003,180.866,344.107,-262.112,226.85,351.723,-103.161,183.371,211.402
282,0,114.943,473.987,1148.28,96.922,198.267,1142.66,-104.014,389.094,1200.27,-102.886,284.748,1189.67,38.8175,530.599,864.09,25.4093,496.624,665.425,-20.5334,492.882,494.893,-3.63725,415.491,238.257,-62.9814,365.101,192.651,152.909,415.859,194.35,91.7781,134.629,853.175,107.695,146.3,660.808,-32.7741,138.884,501.472,-174.675,181.322,346.475,-257.672,227.893,354.377,-99.2789,183.296,213.337
283,0,114.268,474.922,1147.92,95.9545,199.174,1142.88,-104.77,390.319,1200.13,-103.809,285.99,1189.56,37.4566,531.328,863.853,23.2588,497.196,665.187,-22.9909,493.278,494.731,-6.51175,415.532,238.148,-65.8577,365.064,192.592,150.03,415.806,194.285,93.9789,134.831,854.108,112.837,146.076,662.021,-27.5925,138.872,502.944,-170.012,181.786,348.394,-252.917,228.905,356.3,-94.6543,183.213,215.192
284,0,113.533,475.791,1147.57,94.9254,200.02,1143.12,-105.583,391.484,1200.01,-104.788,287.17,1189.48,36.0619,531.992,863.626,21.0604,497.714,664.958,-25.4899,493.64,494.583,-9.40535,415.565,238.046,-68.7384,365.02,192.527,147.137,415.75,194.223,95.9909,135.012,855.101,117.716,145.908,663.305,-22.421,138.914,504.26,-165.003,182.247,349.833,-247.837,229.866,357.455,-89.2715,183.119,216.934
285,0,112.739,476.594,1147.22,93.8368,200.806,1143.36,-106.45,392.587,1199.92,-105.82,288.289,1189.44,34.6348,532.59,863.412,18.8191,498.175,664.739,-28.0251,493.965,494.448,-12.318,415.591,237.949,-71.6256,364.967,192.454,144.227,415.692,194.164,97.8148,135.173,856.153,122.32,145.8,664.655,-17.2643,139.007,505.41,-159.639,182.694,350.766,-242.418,230.76,357.815,-83.1233,183.009,218.538
286,0,111.889,477.33,1146.87,92.691,201.532,1143.62,-107.368,393.628,1199.85,-106.905,289.344,1189.44,33.1768,533.119,863.209,16.5398,498.577,664.53,-30.5913,494.252,494.326,-15.2492,415.608,237.857,-74.5217,364.905,192.374,141.298,415.632,194.108,99.4529,135.316,857.259,126.642,145.751,666.065,-12.1256,139.148,506.384,-153.91,183.12,351.178,-236.65,231.573,357.367,-76.2113,182.879,219.979
287,0,110.983,477.998,1146.52,91.4907,202.197,1143.88,-108.336,394.608,1199.8,-108.038,290.335,1189.47,31.6892,533.578,863.02,14.2271,498.919,664.33,-33.1836,494.499,494.218,-18.1984,415.616,237.768,-77.4289,364.835,192.287,138.347,415.571,194.053,100.909,135.439,858.417,130.673,145.762,667.528,-7.00668,139.334,507.173,-147.809,183.514,351.06,-230.518,232.296,356.11,-68.5462,182.725,221.238
288,0,110.025,478.598,1146.18,90.2387,202.802,1144.17,-109.35,395.525,1199.78,-109.216,291.263,1189.55,30.1731,533.965,862.842,11.8852,499.199,664.14,-35.7976,494.704,494.123,-21.1644,415.616,237.682,-80.3495,364.757,192.192,135.373,415.508,193.998,102.189,135.542,859.62,134.41,145.833,669.038,-1.90801,139.56,507.773,-141.331,183.871,350.413,-224.011,232.92,354.058,-60.1476,182.544,222.304
289,0,109.015,479.131,1145.84,88.9383,203.348,1144.48,-110.407,396.379,1199.79,-110.438,292.127,1189.67,28.6289,534.28,862.678,9.51788,499.417,663.959,-38.4292,494.866,494.041,-24.1463,415.606,237.597,-83.2859,364.672,192.091,132.373,415.444,193.942,103.298,135.626,860.863,137.851,145.963,670.587,3.17087,139.82,508.184,-134.473,184.184,349.246,-217.117,233.443,351.236,-51.0435,182.33,223.168
290,0,107.956,479.597,1145.5,87.5931,203.836,1144.8,-111.505,397.171,1199.82,-111.699,292.927,1189.83,27.0569,534.522,862.525,7.1285,499.572,663.788,-41.0754,494.985,493.973,-27.1431,415.586,237.513,-86.2403,364.581,191.984,129.349,415.38,193.885,104.244,135.688,862.14,140.998,146.148,672.165,8.23122,140.108,508.406,-127.234,184.449,347.579,-209.828,233.862,347.684,-41.2703,182.081,223.83
291,0,106.851,479.997,1145.16,86.207,204.265,1145.15,-112.639,397.9,1199.88,-112.995,293.663,1190.04,25.4567,534.692,862.385,4.71991,499.666,663.627,-43.7336,495.06,493.916,-30.1537,415.557,237.43,-89.2148,364.483,191.871,126.298,415.315,193.826,105.032,135.73,863.444,143.852,146.386,673.766,13.2748,140.417,508.445,-119.618,184.664,345.438,-202.136,234.181,343.451,-30.8713,181.795,224.294
292,0,105.701,480.331,1144.82,84.7844,204.639,1145.52,-113.806,398.567,1199.98,-114.323,294.336,1190.29,23.8275,534.791,862.255,2.29445,499.698,663.474,-46.4021,495.09,493.872,-33.1774,415.517,237.346,-92.2118,364.379,191.753,123.222,415.249,193.765,105.67,135.748,864.767,146.418,146.674,675.38,18.3037,140.742,508.307,-111.629,184.826,342.859,-194.038,234.403,338.598,-19.8962,181.47,224.574
293,0,104.51,480.602,1144.48,83.3299,204.957,1145.91,-115.003,399.172,1200.1,-115.678,294.945,1190.58,22.1681,534.819,862.136,-0.146019,499.67,663.329,-49.0799,495.075,493.839,-36.2136,415.467,237.262,-95.2329,364.271,191.632,120.121,415.183,193.701,106.166,135.743,866.1,148.701,147.007,676.998,23.3197,141.076,508.003,-103.278,184.935,339.883,-185.535,234.535,333.195,-8.39995,181.107,224.684
294,0,103.28,480.81,1144.13,81.8486,205.221,1146.33,-116.225,399.715,1200.25,-117.056,295.492,1190.92,20.477,534.779,862.026,-2.60009,499.583,663.194,-51.7669,495.016,493.817,-39.262,415.405,237.178,-98.2799,364.159,191.508,116.997,415.116,193.634,106.525,135.713,867.437,150.71,147.382,678.611,28.3245,141.411,507.545,-94.5772,184.993,336.558,-176.632,234.584,327.318,3.55844,180.707,224.647
295,0,102.014,480.957,1143.79,80.346,205.432,1146.76,-117.469,400.196,1200.43,-118.453,295.976,1191.3,18.7523,534.674,861.924,-5.0667,499.441,663.066,-54.4632,494.914,493.806,-42.3226,415.332,237.094,-101.354,364.042,191.384,113.85,415.047,193.565,106.753,135.657,868.768,152.452,147.794,680.211,33.3191,141.743,506.948,-85.544,185.001,332.938,-167.338,234.558,321.048,15.917,180.274,224.487
296,0,100.715,481.046,1143.44,78.8279,205.594,1147.21,-118.729,400.617,1200.63,-119.863,296.398,1191.71,16.9922,534.506,861.828,-7.54513,499.245,662.946,-57.1699,494.769,493.804,-45.3956,415.247,237.011,-104.457,363.922,191.26,110.684,414.978,193.494,106.857,135.575,870.086,153.936,148.238,681.789,38.3036,142.064,506.227,-76.1988,184.961,329.078,-157.667,234.466,314.472,28.6121,179.813,224.234
297,0,99.3857,481.079,1143.08,77.3004,205.706,1147.68,-120.002,400.976,1200.86,-121.281,296.759,1192.17,15.1947,534.279,861.738,-10.0348,498.998,662.833,-59.8882,494.582,493.813,-48.4816,415.149,236.931,-107.588,363.798,191.139,107.498,414.907,193.42,106.841,135.465,871.383,155.171,148.709,683.335,43.2768,142.371,505.401,-66.5659,184.878,325.038,-147.641,234.315,307.676,41.579,179.331,223.916
298,0,98.0305,481.059,1142.72,75.7702,205.772,1148.17,-121.282,401.275,1201.11,-122.701,297.059,1192.65,13.3582,533.996,861.651,-12.5353,498.704,662.728,-62.6195,494.355,493.831,-51.5814,415.039,236.853,-110.748,363.671,191.021,104.296,414.834,193.345,106.709,135.328,872.65,156.168,149.204,684.842,48.2364,142.658,504.488,-56.6732,184.755,320.875,-137.283,234.112,300.747,54.7535,178.837,223.565
299,0,96.6527,480.987,1142.36,74.2441,205.792,1148.66,-122.566,401.513,1201.39,-124.118,297.298,1193.17,11.4812,533.662,861.568,-15.0462,498.367,662.628,-65.3654,494.09,493.857,-54.6958,414.916,236.779,-113.937,363.54,190.908,101.079,414.76,193.27,106.466,135.162,873.881,156.937,149.717,686.301,53.1783,142.921,503.506,-46.5523,184.595,316.651,-126.625,233.864,293.769,68.0718,178.34,223.21
300,0,95.2563,480.868,1141.99,72.7293,205.77,1149.16,-123.847,401.692,1201.68,-125.527,297.477,1193.71,9.56301,533.281,861.484,-17.567,497.989,662.535,-68.1272,493.788,493.892,-57.826,414.781,236.711,-117.153,363.405,190.801,97.8493,414.684,193.194,106.115,134.97,875.066,157.488,150.245,687.705,58.0965,143.158,502.473,-36.238,184.402,312.42,-115.702,233.574,286.824,81.4722,177.849,222.879
301,0,93.8456,480.704,1141.62,71.2333,205.706,1149.67,-125.12,401.81,1201.99,-126.92,297.596,1194.28,7.6034,532.858,861.401,-20.0967,497.576,662.447,-70.906,493.452,493.935,-60.973,414.633,236.649,-120.395,363.266,190.702,94.6078,414.607,193.119,105.659,134.75,876.201,157.83,150.783,689.045,62.9834,143.368,501.408,-25.7683,184.181,308.237,-104.555,233.248,279.988,94.8945,177.377,222.599
302,0,92.4249,480.497,1141.24,69.7637,205.603,1150.17,-126.381,401.869,1202.31,-128.293,297.656,1194.86,5.60297,532.397,861.315,-22.6344,497.131,662.363,-73.7026,493.085,493.986,-64.1378,414.473,236.596,-123.662,363.123,190.609,91.3559,414.528,193.046,105.102,134.503,877.277,157.974,151.326,690.314,67.8291,143.548,500.327,-15.1841,183.935,304.153,-93.2284,232.886,273.328,108.281,176.935,222.39
303,0,90.9991,480.252,1140.85,68.3285,205.463,1150.67,-127.624,401.869,1202.65,-129.637,297.657,1195.46,3.56325,531.903,861.227,-25.1785,496.657,662.283,-76.517,492.689,494.043,-67.3214,414.301,236.551,-126.951,362.974,190.524,88.0946,414.447,192.974,104.447,134.231,878.289,157.928,151.872,691.505,72.6217,143.699,499.246,-4.52891,183.669,300.211,-81.7718,232.49,266.907,121.576,176.532,222.272
