Trajectories
100
,,Subj:LASI,,,Subj:RASI,,,Subj:LPSI,,,Subj:RPSI,,,Subj:LTHI,,,Subj:LKNE,,,Subj:LTIB,,,Subj:LANK,,,Subj:LHEE,,,Subj:LTOE,,,Subj:RTHI,,,Subj:RKNE,,,Subj:RTIB,,,Subj:RANK,,,Subj:RHEE,,,Subj:RTOE,,,
Frame,Sub Frame,X,Y,Z,X,Y,Z,X,Y,Z,X,Y,Z,X,Y,Z,X,Y,Z,X,Y,Z,X,Y,Z,X,Y,Z,X,Y,Z,X,Y,Z,X,Y,Z,X,Y,Z,X,Y,Z,X,Y,Z,X,Y,Z
,,mm,mm,mm,mm,mm,mm,mm,mm,mm,mm,mm,mm,mm,mm,mm,mm,mm,mm,mm,mm,mm,mm,mm,mm,mm,mm,mm,mm,mm,mm,mm,mm,mm,mm,mm,mm,mm,mm,mm,mm,mm,mm,mm,mm,mm,mm,mm,mm
1,0,79.7991,411.559,1153.88,107.372,142.728,1144.93,-119.994,305.631,1210.99,-102.693,200.874,1207.02,98.361,488.078,885.633,170.118,474.38,704.276,62.0247,478.237,572.947,-71.1764,419.468,349.287,-147.314,364.724,334.884,29.8047,421.395,230.302,53.8615,100.117,850.035,19.9493,137.813,663.87,-23.3656,146.189,452.921,-48.4939,200.658,242.136,-120.665,241.6,201.516,96.3599,214.067,195.087
2,0,78.4907,411.342,1154.68,105.596,142.796,1143.89,-121.064,305.02,1211.47,-103.755,200.324,1207.29,99.6482,488.276,887.544,170.545,473.488,705.375,69.0993,477.461,570.009,-53.3774,419.865,340.387,-129.108,365.172,321.548,52.4039,423.027,228.877,48.6928,99.7573,850.082,14.7394,138.06,663.524,-29.0672,146.484,452.763,-54.7149,200.715,242.049,-126.939,241.663,201.386,90.0975,214.059,195.066
3,0,77.2648,411.169,1155.39,103.859,142.867,1142.86,-122.088,304.511,1211.9,-104.806,199.884,1207.52,100.642,488.505,889.226,170.722,472.622,706.282,75.7755,476.712,567.117,-35.8442,420.201,332.049,-110.982,365.609,308.95,74.5564,424.356,227.811,43.7563,99.5192,850.073,9.65595,138.308,663.18,-34.7042,146.762,452.616,-60.9384,200.768,241.981,-133.226,241.719,201.307,83.8045,214.032,195.029
4,0,76.1214,411.041,1155.99,102.163,142.942,1141.85,-123.067,304.104,1212.26,-105.847,199.556,1207.69,101.344,488.764,890.68,170.65,471.782,706.996,82.053,475.988,564.273,-18.5797,420.476,324.273,-92.9385,366.035,297.092,96.2584,425.382,227.102,39.052,99.4015,850.009,4.6987,138.556,662.837,-40.2765,147.022,452.48,-67.1641,200.817,241.931,-139.525,241.766,201.278,77.4809,213.987,194.977
5,0,75.0608,410.957,1156.51,100.507,143.02,1140.84,-123.998,303.8,1212.57,-106.876,199.339,1207.8,101.753,489.052,891.906,170.331,470.967,707.519,87.9314,475.289,561.475,-1.59269,420.692,317.056,-74.9905,366.448,285.978,117.499,426.106,226.744,34.5794,99.4025,849.89,-0.132679,138.804,662.496,-45.7844,147.265,452.356,-73.3919,200.86,241.9,-145.836,241.806,201.3,71.127,213.923,194.91
6,0,74.0834,410.917,1156.92,98.892,143.102,1139.84,-124.884,303.598,1212.82,-107.893,199.232,1207.87,101.874,489.368,892.905,169.769,470.179,707.852,93.4095,474.616,558.725,15.0988,420.846,310.4,-57.1639,366.846,275.614,138.258,426.53,226.723,30.3378,99.5187,849.718,-4.83892,139.052,662.157,-51.2282,147.49,452.244,-79.6214,200.899,241.888,-152.159,241.837,201.372,64.7432,213.84,194.828
7,0,73.1899,410.921,1157.24,97.3191,143.189,1138.85,-125.721,303.498,1213.01,-108.896,199.236,1207.88,101.71,489.711,893.679,168.968,469.416,707.999,98.4857,473.968,556.024,31.4639,420.939,304.302,-39.5022,367.225,266.008,158.497,426.661,227.016,26.3255,99.7445,849.493,-9.42127,139.301,661.82,-56.6084,147.697,452.144,-85.852,200.931,241.895,-158.494,241.858,201.497,58.3302,213.74,194.73
8,0,72.3814,410.968,1157.47,95.79,143.279,1137.87,-126.51,303.501,1213.14,-109.885,199.349,1207.84,101.27,490.078,894.23,167.936,468.68,707.963,103.157,473.343,553.373,47.4565,420.969,298.758,-22.0703,367.58,257.174,178.163,426.506,227.587,22.5396,100.072,849.218,-13.8815,139.549,661.487,-61.926,147.887,452.058,-92.083,200.957,241.923,-164.839,241.866,201.676,51.8888,213.621,194.616
9,0,71.6595,411.059,1157.6,94.3072,143.376,1136.91,-127.248,303.606,1213.2,-110.857,199.571,1207.75,100.564,490.466,894.564,166.686,467.97,707.752,107.421,472.741,550.774,63.0136,420.936,293.76,-4.95587,367.902,249.122,197.181,426.08,228.389,18.9755,100.491,848.896,-18.2221,139.798,661.157,-67.1821,148.06,451.986,-98.3132,200.975,241.974,-171.194,241.859,201.912,45.4203,213.485,194.488
10,0,71.0262,411.192,1157.65,92.8737,143.479,1135.95,-127.933,303.812,1213.22,-111.807,199.9,1207.61,99.6088,490.87,894.684,165.231,467.287,707.373,111.271,472.159,548.23,78.0551,420.838,289.296,11.7305,368.182,241.863,215.459,425.401,229.363,15.6266,100.989,848.532,-22.4458,140.047,660.834,-72.3782,148.214,451.93,-104.542,200.983,242.048,-177.559,241.833,202.206,38.926,213.332,194.344
11,0,70.4841,411.368,1157.6,91.4939,143.591,1135.01,-128.562,304.12,1213.17,-112.732,200.335,1207.43,98.4247,491.285,894.6,163.59,466.63,706.835,114.704,471.597,545.742,92.4848,420.674,285.348,27.8578,368.409,235.402,232.887,424.495,230.439,12.4841,101.553,848.131,-26.556,140.298,660.517,-77.5161,148.352,451.892,-110.768,200.978,242.15,-183.932,241.785,202.562,32.4072,213.163,194.187
12,0,70.0363,411.585,1157.48,90.1728,143.714,1134.09,-129.131,304.527,1213.07,-113.626,200.872,1207.19,97.0383,491.705,894.321,161.783,466.002,706.152,117.712,471.051,543.314,106.194,420.442,281.892,43.2782,368.573,229.737,249.34,423.392,231.537,9.53721,102.168,847.699,-30.556,140.551,660.208,-82.5976,148.473,451.874,-116.99,200.96,242.281,-190.314,241.71,202.983,25.8654,212.979,194.016
13,0,69.686,411.844,1157.27,88.9161,143.85,1133.18,-129.637,305.033,1212.91,-114.482,201.509,1206.91,95.4815,492.122,893.859,159.833,465.402,705.335,120.291,470.519,540.948,119.063,420.141,278.898,57.8331,368.66,224.855,264.687,422.13,232.575,6.77281,102.819,847.244,-34.4488,140.807,659.91,-87.6247,148.578,451.878,-123.209,200.924,242.446,-196.703,241.604,203.473,19.3016,212.781,193.833
14,0,69.437,412.143,1156.98,87.7306,144.002,1132.29,-130.075,305.636,1212.7,-115.294,202.242,1206.59,93.7916,492.53,893.228,157.765,464.831,704.398,122.435,470,538.646,130.969,419.771,276.328,71.3594,368.66,220.73,278.791,420.75,233.469,4.17641,103.492,846.773,-38.2367,141.068,659.623,-92.5988,148.669,451.908,-129.424,200.869,242.649,-203.101,241.463,204.034,12.7167,212.569,193.64
15,0,69.2931,412.481,1156.63,86.6235,144.173,1131.42,-130.44,306.333,1212.43,-116.053,203.066,1206.22,92.0109,492.922,892.444,155.605,464.291,703.357,124.138,469.49,536.41,141.791,419.329,274.136,83.6975,368.563,217.325,291.523,419.295,234.141,1.73254,104.173,846.293,-41.921,141.336,659.35,-97.5209,148.746,451.966,-135.636,200.792,242.895,-209.509,241.284,204.669,6.11115,212.346,193.439
16,0,69.2583,412.859,1156.21,85.6028,144.368,1130.57,-130.728,307.122,1212.12,-116.75,203.977,1205.82,90.1854,493.29,891.526,153.38,463.783,702.226,125.4,468.989,534.241,151.413,418.818,272.272,94.6989,368.363,214.585,302.762,417.811,234.521,-0.574346,104.851,845.812,-45.501,141.614,659.091,-102.391,148.812,452.054,-141.846,200.693,243.188,-215.927,241.065,205.383,-0.514956,212.111,193.234
17,0,69.3363,413.276,1155.74,84.6766,144.59,1129.76,-130.934,307.998,1211.76,-117.377,204.969,1205.38,88.3642,493.63,890.492,151.114,463.309,701.022,126.218,468.496,532.141,159.734,418.238,270.682,104.234,368.055,212.444,312.407,416.34,234.553,-2.75891,105.515,845.336,-48.9738,141.904,658.847,-107.208,148.869,452.175,-148.055,200.569,243.536,-222.357,240.806,206.177,-7.16198,211.864,193.026
18,0,69.5306,413.731,1155.22,83.8531,144.845,1128.97,-131.052,308.959,1211.36,-117.924,206.035,1204.92,86.5974,493.935,889.363,148.833,462.871,699.758,126.595,468.011,530.109,166.671,417.591,269.309,112.198,367.639,210.825,320.383,414.922,234.197,-4.83385,106.16,844.871,-52.3334,142.212,658.618,-111.969,148.919,452.332,-154.265,200.421,243.942,-228.802,240.505,207.056,-13.8306,211.607,192.819
19,0,69.8441,414.224,1154.66,83.1404,145.137,1128.22,-131.079,309.998,1210.92,-118.382,207.17,1204.42,84.9347,494.204,888.162,146.559,462.471,698.45,126.539,467.535,528.146,172.166,416.882,268.096,118.518,367.118,209.644,326.645,413.59,233.433,-6.8089,106.779,844.422,-55.5704,142.54,658.403,-116.668,148.967,452.526,-160.478,200.248,244.414,-235.264,240.165,208.024,-20.5216,211.339,192.617
20,0,70.2789,414.756,1154.07,82.5464,145.472,1127.52,-131.011,311.112,1210.45,-118.741,208.366,1203.9,83.4231,494.433,886.91,144.312,462.111,697.11,126.059,467.07,526.25,176.187,416.115,266.989,123.157,366.502,208.81,331.185,412.372,232.262,-8.6898,107.372,843.992,-58.6716,142.893,658.201,-121.297,149.014,452.76,-166.696,200.051,244.956,-241.747,239.788,209.085,-27.2357,211.062,192.422
21,0,70.8364,415.327,1153.46,82.0781,145.854,1126.85,-130.845,312.295,1209.94,-118.994,209.616,1203.36,82.1053,494.623,885.628,142.108,461.796,695.751,125.171,466.62,524.421,178.733,415.299,265.937,126.116,365.802,208.234,334.029,411.286,230.705,-10.4775,107.94,843.583,-61.6192,143.276,658.008,-125.845,149.066,453.034,-172.917,199.834,245.576,-248.251,239.378,210.246,-33.9736,210.774,192.237
22,0,71.5167,415.937,1152.84,81.7416,146.29,1126.24,-130.578,313.542,1209.42,-119.134,210.914,1202.8,81.0174,494.775,884.338,139.962,461.527,694.385,123.894,466.191,522.657,179.835,414.442,264.896,127.434,365.034,207.83,335.245,410.344,228.8,-12.1673,108.486,843.195,-64.3909,143.693,657.821,-130.297,149.125,453.349,-179.141,199.596,246.28,-254.778,238.939,211.514,-40.7352,210.478,192.065
23,0,72.3187,416.589,1152.23,81.542,146.784,1125.68,-130.209,314.847,1208.87,-119.154,212.252,1202.23,80.1872,494.895,883.059,137.882,461.308,693.021,122.254,465.788,520.957,179.551,413.553,263.832,127.186,364.217,207.519,334.933,409.547,226.603,-13.7489,109.018,842.828,-66.9597,144.149,657.635,-134.635,149.196,453.708,-185.364,199.342,247.075,-261.326,238.475,212.899,-47.5197,210.174,191.905
24,0,73.2399,417.282,1151.62,81.4829,147.342,1125.18,-129.738,316.205,1208.31,-119.049,213.624,1201.66,79.6329,494.987,881.809,135.876,461.142,691.668,120.278,465.418,519.321,177.972,412.646,262.718,125.482,363.371,207.234,333.227,408.892,224.179,-15.2054,109.545,842.481,-69.294,144.647,657.446,-138.837,149.281,454.109,-191.579,199.074,247.969,-267.893,237.989,214.414,-54.3254,209.865,191.759
25,0,74.2763,418.019,1151.02,81.5664,147.969,1124.75,-129.166,317.61,1207.75,-118.818,215.024,1201.08,79.3618,495.06,880.603,133.947,461.033,690.335,117.998,465.09,517.747,175.209,411.734,261.538,122.46,362.518,206.92,330.285,408.366,221.604,-16.5141,110.078,842.149,-71.3577,145.191,657.246,-142.875,149.385,454.555,-197.776,198.795,248.969,-274.471,237.487,216.074,-61.1493,209.553,191.626
26,0,75.4222,418.8,1150.46,81.7927,148.668,1124.39,-128.496,319.057,1207.2,-118.458,216.446,1200.51,79.3699,495.122,879.455,132.092,460.984,689.027,115.452,464.811,516.236,171.394,410.829,260.286,118.277,361.68,206.538,326.283,407.956,218.952,-17.6465,110.63,841.83,-73.1111,145.782,657.029,-146.719,149.509,455.046,-203.94,198.506,250.084,-281.049,236.969,217.898,-67.9875,209.243,191.505
27,0,76.6704,419.629,1149.92,82.1604,149.444,1124.1,-127.73,320.542,1206.65,-117.971,217.886,1199.94,79.6416,495.184,878.376,130.31,460.998,687.751,112.674,464.59,514.788,166.673,409.946,258.965,113.107,360.876,206.065,321.404,407.643,216.298,-18.5688,111.214,841.519,-74.511,146.423,656.787,-150.336,149.655,455.582,-210.053,198.211,251.327,-287.61,236.437,219.909,-74.8344,208.94,191.392
28,0,78.0119,420.507,1149.43,82.6657,150.3,1123.89,-126.874,322.06,1206.12,-117.36,219.34,1199.39,80.1505,495.258,877.372,128.593,461.077,686.513,109.704,464.435,513.404,161.198,409.098,257.588,107.129,360.124,205.49,315.831,407.408,213.709,-19.2428,111.846,841.21,-75.5124,147.111,656.514,-153.687,149.825,456.167,-216.09,197.909,252.708,-294.131,235.891,222.131,-81.6836,208.651,191.284
29,0,79.436,421.436,1148.97,83.3033,151.239,1123.77,-125.934,323.608,1205.61,-116.631,220.803,1198.85,80.8602,495.356,876.449,126.933,461.224,685.315,106.577,464.354,512.085,155.122,408.299,256.173,100.52,359.438,204.816,309.738,407.234,211.243,-19.6272,112.539,840.901,-76.0688,147.846,656.2,-156.733,150.018,456.8,-222.021,197.603,254.242,-300.583,235.332,224.594,-88.5275,208.382,191.178
30,0,80.9307,422.417,1148.57,84.0655,152.262,1123.72,-124.918,325.181,1205.13,-115.79,222.275,1198.33,81.7259,495.488,875.609,125.318,461.44,684.162,103.331,464.352,510.834,148.593,407.56,254.743,93.4484,358.828,204.06,303.283,407.104,208.947,-19.6784,113.306,840.585,-76.1339,148.622,655.84,-159.432,150.233,457.486,-227.813,197.292,255.944,-306.93,234.757,227.331,-95.3576,208.144,191.072
31,0,82.4825,423.452,1148.21,84.9429,153.369,1123.76,-123.834,326.777,1204.69,-114.848,223.752,1197.83,82.6962,495.668,874.852,123.735,461.727,683.057,99.9971,464.434,509.652,141.747,406.889,253.325,86.0674,358.3,203.242,296.602,407.002,206.854,-19.3523,114.158,840.259,-75.6631,149.436,655.428,-161.742,150.468,458.229,-233.426,196.977,257.832,-313.128,234.165,230.374,-102.165,207.945,190.962
32,0,84.0765,424.543,1147.91,85.9242,154.56,1123.89,-122.694,328.393,1204.29,-113.817,225.233,1197.36,83.7156,495.906,874.173,122.169,462.085,682.001,96.6041,464.603,508.54,134.708,406.295,251.943,78.5114,357.856,202.39,289.805,406.916,204.985,-18.6059,115.104,839.92,-74.6145,150.278,654.958,-163.62,150.72,459.034,-238.816,196.658,259.926,-319.126,233.558,233.76,-108.939,207.794,190.848
33,0,85.6971,425.691,1147.65,86.9965,155.833,1124.1,-121.507,330.026,1203.94,-112.709,226.719,1196.92,84.7261,496.211,873.568,120.606,462.514,680.997,93.1758,464.86,507.499,127.579,405.781,250.625,70.8926,357.495,201.533,282.976,406.838,203.35,-17.3991,116.148,839.567,-72.9506,151.141,654.428,-165.024,150.985,459.906,-243.937,196.334,262.247,-324.867,232.935,237.525,-115.67,207.701,190.732
34,0,87.3275,426.895,1147.44,88.1454,157.185,1124.39,-120.287,331.672,1203.64,-111.54,228.207,1196.51,85.6701,496.593,873.031,119.027,463.013,680.044,89.7305,465.204,506.531,120.445,405.35,249.391,63.2993,357.212,200.701,276.173,406.761,201.945,-15.6962,117.291,839.197,-70.6397,152.013,653.837,-165.917,151.258,460.855,-248.741,196.008,264.815,-330.29,232.301,241.704,-122.346,207.673,190.619
35,0,88.9508,428.157,1147.27,89.3554,158.612,1124.77,-119.047,333.33,1203.38,-110.326,229.699,1196.13,86.4923,497.058,872.553,117.416,463.58,679.144,86.2809,465.633,505.635,113.371,405.002,248.261,55.7969,356.998,199.918,269.432,406.68,200.762,-13.4683,118.531,838.814,-67.6571,152.885,653.185,-166.264,151.534,461.887,-253.178,195.68,267.655,-335.33,231.662,246.33,-128.954,207.717,190.52
36,0,90.5495,429.474,1147.14,90.6101,160.11,1125.21,-117.8,334.997,1203.18,-109.083,231.194,1195.78,87.1415,497.61,872.125,115.753,464.215,678.294,82.8336,466.141,504.81,106.404,404.735,247.246,48.4292,356.846,199.208,262.769,406.592,199.781,-10.6945,119.859,838.421,-63.9864,153.742,652.477,-166.034,151.807,463.013,-257.197,195.354,270.786,-339.918,231.027,251.434,-135.479,207.835,190.447
37,0,92.1064,430.847,1147.04,91.8923,161.671,1125.73,-116.56,336.669,1203.03,-107.83,232.693,1195.46,87.5724,498.252,871.737,114.02,464.914,677.492,79.3899,466.722,504.054,99.5709,404.543,246.353,41.2206,356.745,198.584,256.186,406.496,198.981,-7.364,121.262,838.023,-59.6201,154.573,651.72,-165.204,152.071,464.242,-260.752,195.033,274.231,-343.988,230.411,257.038,-141.904,208.027,190.421
38,0,93.6046,432.273,1146.97,93.1848,163.287,1126.3,-115.342,338.342,1202.93,-106.585,234.194,1195.18,87.7464,498.985,871.381,112.198,465.674,676.738,75.9459,467.369,503.363,92.8863,404.421,245.584,34.1801,356.685,198.058,249.676,406.391,198.338,-3.4773,122.723,837.63,-54.5607,155.365,650.922,-163.754,152.321,465.586,-263.797,194.721,278.005,-347.475,229.829,263.157,-148.207,208.288,190.467
39,0,95.0277,433.748,1146.92,94.4701,164.952,1126.93,-114.161,340.014,1202.87,-105.365,235.698,1194.92,87.6328,499.809,871.046,110.269,466.492,676.025,72.4935,468.073,502.733,86.3516,404.362,244.934,27.3043,356.657,197.631,243.225,406.279,197.824,0.952711,124.22,837.252,-48.8207,156.106,650.098,-161.676,152.551,467.055,-266.293,194.425,282.124,-350.321,229.3,269.799,-154.361,208.608,190.613
40,0,96.3605,435.271,1146.87,95.7312,166.655,1127.61,-113.029,341.678,1202.86,-104.187,237.204,1194.69,87.209,500.718,870.725,108.214,467.364,675.352,69.0208,468.823,502.159,79.9592,404.358,244.395,20.581,356.651,197.302,236.819,406.16,197.415,5.90014,125.729,836.901,-42.4226,156.786,649.263,-158.966,152.757,468.659,-268.203,194.151,286.595,-352.473,228.846,276.959,-160.332,208.974,190.894
41,0,97.5888,436.837,1146.83,96.9518,168.387,1128.31,-111.962,343.331,1202.88,-103.068,238.709,1194.48,86.4605,501.709,870.41,106.018,468.286,674.713,65.5135,469.61,501.635,73.6954,404.4,243.954,13.9928,356.66,197.064,230.444,406.035,197.085,11.3259,127.221,836.593,-35.3989,157.394,648.435,-155.629,152.935,470.407,-269.499,193.905,291.418,-353.887,228.488,284.618,-166.078,209.367,191.348
42,0,98.6998,438.441,1146.78,98.1163,170.138,1129.05,-110.971,344.967,1202.94,-102.022,240.211,1194.29,85.3808,502.774,870.093,103.663,469.252,674.104,61.9553,470.422,501.154,67.5425,404.48,243.596,7.51947,356.677,196.906,224.09,405.908,196.815,17.1783,128.67,836.343,-27.7913,157.924,647.636,-151.678,153.082,472.305,-270.159,193.694,296.588,-354.533,228.246,292.743,-171.55,209.766,192.012
43,0,99.6825,440.077,1146.72,99.2103,171.897,1129.8,-110.07,346.58,1203.02,-101.065,241.709,1194.13,83.9708,503.905,869.77,101.137,470.257,673.519,58.3296,471.25,500.71,61.4818,404.589,243.305,1.14072,356.697,196.817,217.751,405.779,196.584,23.3938,130.046,836.167,-19.6498,158.369,646.888,-147.131,153.197,474.359,-270.165,193.526,302.086,-354.389,228.141,301.288,-176.686,210.144,192.924
44,0,100.528,441.74,1146.64,100.221,173.653,1130.55,-109.268,348.164,1203.11,-100.207,243.198,1193.98,82.2384,505.092,869.436,98.4272,471.295,672.954,54.6194,472.083,500.297,55.4942,404.721,243.064,-5.16258,356.718,196.78,211.423,405.652,196.377,29.8991,131.322,836.082,-11.0315,158.726,646.216,-142.017,153.279,476.57,-269.51,193.403,307.886,-353.447,228.186,310.185,-181.414,210.478,194.119
45,0,101.227,443.423,1146.54,101.137,175.397,1131.31,-108.575,349.714,1203.22,-99.4585,244.675,1193.84,80.1975,506.324,869.09,95.5244,472.359,672.404,50.8089,472.911,499.908,49.5625,404.867,242.857,-11.4071,356.736,196.784,205.11,405.528,196.183,36.6127,132.474,836.102,-1.99953,158.995,645.646,-136.366,153.329,478.936,-268.188,193.332,313.947,-351.714,228.392,319.356,-185.652,210.742,195.624
46,0,101.776,445.119,1146.41,101.947,177.117,1132.05,-107.998,351.224,1203.34,-98.8284,246.136,1193.72,77.8674,507.588,868.729,92.4218,473.441,671.866,46.8837,473.724,499.537,43.6713,405.02,242.671,-17.6064,356.748,196.813,198.813,405.41,195.992,43.4479,133.483,836.239,7.37878,159.177,645.203,-130.217,153.348,481.45,-266.202,193.314,320.218,-349.204,228.762,328.701,-189.307,210.913,197.458
47,0,102.171,446.821,1146.24,102.645,178.804,1132.78,-107.544,352.688,1203.46,-98.3225,247.576,1193.61,75.2716,508.873,868.354,89.1153,474.533,671.338,42.8314,474.514,499.182,37.8075,405.174,242.495,-23.7712,356.755,196.855,192.539,405.299,195.799,50.3158,134.333,836.506,17.0332,159.276,644.913,-123.61,153.34,484.102,-263.557,193.35,326.636,-345.946,229.292,338.109,-192.278,210.976,199.63
48,0,102.409,448.521,1146.04,103.224,180.45,1133.49,-107.218,354.101,1203.58,-97.9448,248.991,1193.51,72.4375,510.163,867.966,85.6037,475.626,670.816,38.6417,475.273,498.837,31.9606,405.324,242.319,-29.9091,356.754,196.902,186.292,405.196,195.601,57.1279,135.014,836.909,26.8921,159.298,644.8,-116.588,153.308,486.875,-260.262,193.439,333.125,-341.974,229.972,347.455,-194.457,210.917,202.133
49,0,102.491,450.212,1145.81,103.679,182.046,1134.17,-107.021,355.458,1203.69,-97.6975,250.376,1193.42,69.3949,511.445,867.568,81.8887,476.711,670.301,34.3071,475.993,498.502,26.122,405.464,242.137,-36.0251,356.745,196.944,180.077,405.102,195.396,63.7996,135.525,837.452,36.8842,159.253,644.886,-109.197,153.257,489.749,-256.33,193.576,339.6,-337.333,230.782,356.603,-195.733,210.734,204.947
50,0,102.419,451.886,1145.54,104.007,183.585,1134.82,-106.954,356.756,1203.8,-97.5805,251.725,1193.35,66.1755,512.705,867.162,77.9745,477.778,669.791,29.8225,476.669,498.174,20.285,405.59,241.948,-42.1222,356.726,196.976,173.898,405.018,195.185,70.253,135.867,838.136,46.9394,159.148,645.19,-101.481,153.19,492.696,-251.773,193.756,345.967,-332.069,231.698,365.408,-195.995,210.432,208.037
51,0,102.196,453.535,1145.24,104.207,185.061,1135.44,-107.015,357.992,1203.9,-97.5924,253.036,1193.29,62.8117,513.927,866.754,73.8678,478.816,669.289,25.1854,477.294,497.854,14.4442,405.697,241.75,-48.202,356.694,196.994,167.753,404.941,194.97,76.4193,136.051,838.959,56.9903,158.996,645.728,-93.4838,153.114,495.688,-246.605,193.972,352.126,-326.232,232.689,373.723,-195.134,210.024,211.353
52,0,101.825,455.152,1144.91,104.279,186.468,1136.03,-107.202,359.164,1203.99,-97.7299,254.304,1193.25,59.3355,515.099,866.346,69.5776,479.815,668.797,20.3961,477.865,497.544,8.59538,405.781,241.546,-54.2651,356.649,196.999,161.643,404.871,194.753,82.2412,136.09,839.916,66.9729,158.808,646.512,-85.2479,153.033,498.687,-240.839,194.215,357.973,-319.871,233.72,381.401,-193.052,209.529,214.831
53,0,101.315,456.728,1144.56,104.226,187.802,1136.59,-107.511,360.273,1204.08,-97.9883,255.526,1193.24,55.7782,516.207,865.943,65.1146,480.766,668.316,15.4568,478.376,497.246,2.73497,405.84,241.341,-60.3114,356.588,196.99,155.562,404.807,194.535,87.674,136.006,840.998,76.8276,158.596,647.549,-76.8126,152.952,501.655,-234.488,194.477,363.403,-313.032,234.755,388.299,-189.662,208.976,218.396
54,0,100.67,458.258,1144.18,104.05,189.061,1137.13,-107.934,361.318,1204.17,-98.3618,256.698,1193.24,52.1686,517.239,865.551,60.4911,481.659,667.852,10.3721,478.827,496.964,-3.14002,405.871,241.139,-66.3409,356.509,196.97,149.505,404.746,194.321,92.6871,135.821,842.198,86.499,158.371,648.843,-68.2139,152.873,504.551,-227.564,194.748,368.313,-305.756,235.759,394.281,-184.895,208.393,221.968
55,0,99.8985,459.733,1143.8,103.756,190.242,1137.65,-108.465,362.301,1204.26,-98.8436,257.819,1193.28,48.5331,518.185,865.173,55.7204,482.486,667.407,5.14841,479.215,496.701,-9.03208,405.873,240.947,-72.3537,356.411,196.943,143.465,404.687,194.112,97.2634,135.559,843.505,95.937,158.146,650.39,-59.4839,152.802,507.332,-220.077,195.017,372.608,-298.076,236.697,399.226,-178.7,207.814,225.46
56,0,99.009,461.148,1143.41,103.35,191.344,1138.15,-109.095,363.226,1204.36,-99.4262,258.887,1193.35,44.8943,519.034,864.813,50.8169,483.239,666.986,-0.206113,479.539,496.463,-14.9433,405.845,240.771,-78.3505,356.292,196.916,137.434,404.626,193.908,101.4,135.247,844.908,105.096,157.931,652.182,-50.6509,152.741,509.953,-212.036,195.275,376.198,-290.018,237.541,403.028,-171.05,207.268,228.788
57,0,98.0099,462.496,1143.02,102.837,192.368,1138.65,-109.815,364.094,1204.47,-100.102,259.902,1193.47,41.2709,519.782,864.474,45.7954,483.913,666.594,-5.68188,479.799,496.253,-20.8752,405.786,240.619,-84.3325,356.153,196.893,131.405,404.563,193.713,105.105,134.91,846.399,113.935,157.735,654.208,-41.7393,152.692,512.373,-203.448,195.514,379.009,-281.596,238.266,405.601,-161.942,206.781,231.871
58,0,96.9099,463.773,1142.64,102.225,193.313,1139.14,-110.616,364.91,1204.59,-100.861,260.862,1193.62,37.6773,520.422,864.16,40.6708,484.504,666.233,-11.2681,479.997,496.077,-26.829,405.7,240.495,-90.3018,355.995,196.882,125.37,404.495,193.525,108.399,134.57,847.97,122.417,157.567,656.449,-32.7694,152.655,514.55,-194.32,195.726,380.98,-272.814,238.856,406.88,-151.398,206.373,234.639
59,0,95.7181,464.973,1142.28,101.522,194.18,1139.64,-111.488,365.679,1204.74,-101.697,261.769,1193.82,34.1235,520.953,863.871,35.4585,485.008,665.909,-16.9528,480.135,495.938,-32.8053,405.587,240.404,-96.2615,355.819,196.891,119.322,404.422,193.346,111.312,134.245,849.611,130.511,157.434,658.882,-23.7583,152.63,516.448,-184.656,195.905,382.064,-263.664,239.302,406.827,-139.463,206.055,237.032
60,0,94.4432,466.093,1141.93,100.737,194.973,1140.14,-112.42,366.404,1204.91,-102.599,262.621,1194.07,30.6149,521.375,863.61,30.1737,485.426,665.623,-22.7232,480.216,495.842,-38.8043,405.451,240.352,-102.215,355.629,196.929,113.259,404.342,193.174,113.878,133.952,851.318,138.187,157.341,661.482,-14.7198,152.618,518.033,-174.458,196.044,382.236,-254.13,239.601,405.426,-126.203,205.827,239.006
61,0,93.0943,467.128,1141.61,99.8783,195.692,1140.65,-113.402,367.09,1205.11,-103.561,263.421,1194.37,27.1536,521.69,863.376,24.8315,485.758,665.379,-28.5659,480.243,495.791,-44.8257,405.296,240.341,-108.168,355.428,197.002,107.176,404.255,193.009,116.138,133.698,853.086,145.42,157.292,664.217,-5.66565,152.615,519.281,-163.728,196.139,381.487,-244.186,239.756,402.69,-111.704,205.681,240.532
62,0,91.6801,468.077,1141.33,98.9557,196.341,1141.18,-114.427,367.739,1205.33,-104.572,264.168,1194.72,23.7379,521.902,863.169,19.4469,486.006,665.178,-34.4668,480.221,495.787,-50.8688,405.126,240.373,-114.126,355.222,197.119,101.072,404.16,192.851,118.133,133.489,854.91,152.187,157.289,667.055,3.39435,152.621,520.171,-152.468,196.187,379.828,-233.796,239.775,398.656,-96.0665,205.6,241.598
63,0,90.2091,468.938,1141.07,97.979,196.922,1141.73,-115.483,368.356,1205.59,-105.626,264.863,1195.11,20.3638,522.018,862.988,14.0349,486.175,665.021,-40.4113,480.155,495.833,-56.9326,404.945,240.449,-120.094,355.015,197.286,94.9464,404.058,192.699,119.905,133.324,856.786,158.47,157.332,669.96,12.4513,152.633,520.692,-140.679,196.185,377.291,-222.922,239.672,393.386,-79.4028,205.56,242.21
64,0,88.69,469.709,1140.86,96.9583,197.438,1142.3,-116.564,368.94,1205.88,-106.713,265.507,1195.56,17.0258,522.044,862.83,8.61012,486.268,664.906,-46.3846,480.049,495.929,-63.016,404.758,240.571,-126.079,354.813,197.512,88.8003,403.949,192.552,121.492,133.2,858.708,164.251,157.421,672.895,21.4967,152.646,520.84,-128.362,196.131,373.923,-211.521,239.46,386.964,-61.8309,205.532,242.389
65,0,87.131,470.391,1140.68,95.9038,197.892,1142.88,-117.662,369.493,1206.2,-107.827,266.098,1196.05,13.7173,521.989,862.693,3.18741,486.293,664.835,-52.3717,479.91,496.074,-69.1176,404.569,240.738,-132.087,354.62,197.8,82.6347,403.833,192.409,122.927,133.107,860.67,169.516,157.554,675.824,30.5214,152.659,520.62,-115.521,196.023,369.79,-199.551,239.154,379.495,-43.4719,205.485,242.169
66,0,85.5405,470.984,1140.54,94.8262,198.286,1143.49,-118.77,370.013,1206.54,-108.959,266.636,1196.57,10.4323,521.862,862.575,-2.2186,486.257,664.804,-58.3575,479.743,496.269,-75.236,404.382,240.95,-138.125,354.439,198.154,76.4506,403.712,192.271,124.24,133.036,862.663,174.256,157.726,678.707,39.5154,152.667,520.045,-102.162,195.859,364.973,-186.972,238.766,371.104,-24.446,205.389,241.598
67,0,83.9269,471.489,1140.43,93.7359,198.624,1144.1,-119.882,370.497,1206.91,-110.101,267.12,1197.13,7.16564,521.673,862.472,-7.59334,486.165,664.812,-64.3269,479.553,496.511,-81.3697,404.2,241.204,-144.197,354.274,198.578,70.249,403.586,192.136,125.451,132.974,864.676,178.462,157.935,681.511,48.4673,152.667,519.135,-88.2949,195.638,359.565,-173.754,238.308,361.928,-4.86957,205.22,240.732
68,0,82.2985,471.909,1140.36,92.6439,198.908,1144.73,-120.992,370.943,1207.3,-111.247,267.547,1197.71,3.91419,521.429,862.382,-12.9223,486.025,664.856,-70.2651,479.345,496.796,-87.5168,404.025,241.499,-150.307,354.127,199.072,64.0303,403.456,192.005,126.573,132.91,866.694,182.13,158.173,684.199,57.3632,152.656,517.92,-73.9346,195.359,353.669,-159.873,237.79,352.118,15.147,204.957,239.633
69,0,80.6638,472.246,1140.32,91.5609,199.141,1145.37,-122.097,371.343,1207.7,-112.388,267.915,1198.31,0.67705,521.14,862.3,-18.1914,485.844,664.931,-76.1577,479.124,497.124,-93.6754,403.859,241.834,-156.458,353.999,199.636,57.7939,403.324,191.876,127.613,132.831,868.698,185.262,158.437,686.741,66.1871,152.632,516.433,-59.1039,195.023,347.397,-145.323,237.217,341.83,35.4997,204.59,238.367
70,0,79.0318,472.505,1140.3,90.4978,199.325,1146,-123.192,371.692,1208.1,-113.515,268.219,1198.91,-2.54394,520.813,862.223,-23.3866,485.629,665.036,-81.9908,478.894,497.489,-99.8431,403.701,242.206,-162.65,353.889,200.268,51.5388,403.19,191.749,128.571,132.727,870.667,187.861,158.719,689.109,74.9204,152.591,514.714,-43.8338,194.631,340.865,-130.11,236.593,331.228,56.0913,204.118,237.004
71,0,77.4112,472.688,1140.29,89.4655,199.463,1146.63,-124.272,371.981,1208.51,-114.623,268.455,1199.51,-5.74408,520.454,862.149,-28.4944,485.385,665.165,-87.7514,478.66,497.888,-106.017,403.553,242.613,-168.884,353.796,200.966,45.2632,403.057,191.624,129.439,132.589,872.577,189.939,159.013,691.278,83.5416,152.532,512.805,-28.1659,194.184,334.19,-114.261,235.923,320.475,76.83,203.547,235.607
72,0,75.8115,472.801,1140.3,88.4748,199.556,1147.25,-125.334,372.203,1208.9,-115.701,268.618,1200.11,-8.91597,520.069,862.076,-33.502,485.117,665.315,-93.4272,478.423,498.317,-112.194,403.414,243.054,-175.156,353.718,201.727,38.9649,402.926,191.499,130.205,132.409,874.4,191.51,159.313,693.23,92.0266,152.454,510.752,-12.153,193.687,327.488,-97.8238,235.208,309.731,97.6277,202.893,234.239
73,0,74.2423,472.848,1140.31,87.5365,199.607,1147.84,-126.375,372.346,1209.28,-116.741,268.703,1200.68,-12.0498,519.662,862.001,-38.3973,484.83,665.484,-99.0072,478.187,498.774,-118.371,403.282,243.526,-181.462,353.654,202.547,32.6414,402.796,191.373,130.855,132.183,876.109,192.595,159.613,694.948,100.349,152.357,508.6,4.13894,193.146,320.871,-80.8659,234.452,299.151,118.397,202.178,232.955
74,0,72.7135,472.834,1140.31,86.6612,199.616,1148.4,-127.39,372.403,1209.64,-117.735,268.704,1201.22,-15.1337,519.236,861.923,-43.1693,484.526,665.667,-104.482,477.952,499.255,-124.543,403.158,244.028,-187.796,353.602,203.423,26.2904,402.669,191.245,131.371,131.909,877.676,193.221,159.907,696.424,108.478,152.241,506.396,20.6304,192.568,314.442,-63.4788,233.66,288.878,139.051,201.429,231.802
75,0,71.2354,472.764,1140.3,85.8594,199.586,1148.92,-128.373,372.363,1209.96,-118.674,268.616,1201.73,-18.1546,518.791,861.842,-47.8079,484.206,665.862,-109.842,477.721,499.758,-130.705,403.04,244.559,-194.153,353.561,204.353,19.91,402.545,191.114,131.737,131.584,879.072,193.421,160.191,697.653,116.383,152.109,504.18,37.228,191.963,308.296,-45.7753,232.84,279.045,159.495,200.675,230.814
76,0,69.8185,472.643,1140.26,85.1414,199.517,1149.4,-129.322,372.219,1210.25,-119.549,268.433,1202.2,-21.0987,518.329,861.758,-52.3041,483.873,666.068,-115.081,477.492,500.282,-136.855,402.928,245.118,-200.524,353.53,205.334,13.4984,402.423,190.977,131.936,131.212,880.275,193.23,160.461,698.635,124.031,151.963,501.992,53.8245,191.344,302.513,-27.8888,232.003,269.765,179.631,199.948,230.015
77,0,68.4735,472.475,1140.2,84.517,199.41,1149.84,-130.228,371.962,1210.5,-120.35,268.152,1202.61,-23.9523,517.85,861.671,-56.6503,483.525,666.283,-120.194,477.265,500.824,-142.987,402.822,245.706,-206.903,353.511,206.367,7.05447,402.304,190.834,131.957,130.794,881.262,192.692,160.713,699.376,131.387,151.807,499.867,70.2996,190.723,297.159,-9.97145,231.165,261.137,199.351,199.274,229.417
78,0,67.2115,472.264,1140.11,83.9958,199.267,1150.22,-131.086,371.585,1210.7,-121.068,267.766,1202.96,-26.7022,517.352,861.583,-60.8398,483.162,666.505,-125.176,477.038,501.386,-149.099,402.723,246.324,-213.284,353.504,207.451,0.577586,402.188,190.683,131.794,130.335,882.019,191.851,160.946,699.884,138.415,151.645,497.833,86.5217,190.117,292.285,7.80894,230.341,253.236,218.541,198.681,229.016
79,0,66.0433,472.014,1139.97,83.587,199.086,1150.54,-131.887,371.083,1210.85,-121.694,267.274,1203.25,-29.3365,516.834,861.496,-64.8669,482.781,666.734,-130.025,476.81,501.968,-155.189,402.632,246.975,-219.66,353.512,208.587,-5.93255,402.074,190.524,131.446,129.843,882.535,190.758,161.158,700.173,145.078,151.483,495.913,102.35,189.542,287.924,25.2723,229.551,246.117,237.074,198.188,228.797
80,0,64.9798,471.729,1139.79,83.2993,198.868,1150.81,-132.624,370.454,1210.94,-122.219,266.673,1203.48,-31.8446,516.294,861.412,-68.7265,482.381,666.969,-134.738,476.578,502.57,-161.257,402.55,247.661,-226.028,353.539,209.78,-12.476,401.963,190.354,130.921,129.324,882.809,189.461,161.351,700.26,151.341,151.328,494.123,117.637,189.014,284.091,42.2309,228.817,239.812,254.819,197.814,228.732
81,0,64.0318,471.41,1139.56,83.1406,198.613,1151.02,-133.286,369.696,1210.98,-122.634,265.963,1203.64,-34.2181,515.729,861.334,-72.4141,481.958,667.209,-139.315,476.339,503.195,-167.303,402.479,248.389,-232.384,353.587,211.032,-19.0527,401.854,190.176,130.235,128.787,882.845,188.014,161.524,700.163,157.168,151.185,492.472,132.231,188.551,280.784,58.4937,228.161,234.331,271.638,197.568,228.78
82,0,63.2095,471.059,1139.28,83.1184,198.32,1151.17,-133.865,368.809,1210.96,-122.93,265.143,1203.73,-36.4498,515.139,861.264,-75.9248,481.509,667.455,-143.754,476.09,503.845,-173.33,402.422,249.162,-238.728,353.66,212.349,-25.6629,401.75,189.988,129.414,128.243,882.656,186.466,161.679,699.903,162.527,151.062,490.962,145.985,188.168,277.986,73.8725,227.602,229.662,287.393,197.459,228.896
83,0,62.523,470.678,1138.95,83.2393,197.987,1151.27,-134.349,367.796,1210.88,-123.1,264.215,1203.76,-38.5344,514.519,861.204,-79.2534,481.032,667.706,-148.055,475.827,504.522,-179.344,402.38,249.987,-245.06,353.76,213.735,-32.3066,401.65,189.793,128.491,127.703,882.261,184.865,161.818,699.502,167.387,150.966,489.592,158.753,187.881,275.665,88.1865,227.16,225.772,301.946,197.489,229.026
84,0,61.9816,470.265,1138.57,83.5092,197.614,1151.32,-134.727,366.662,1210.74,-123.136,263.184,1203.72,-40.4675,513.87,861.157,-82.3933,480.523,667.959,-152.215,475.548,505.228,-185.348,402.355,250.872,-251.382,353.891,215.197,-38.9843,401.556,189.593,127.51,127.179,881.687,183.258,161.944,698.98,171.719,150.903,488.351,170.401,187.703,273.775,101.269,226.852,222.612,315.169,197.656,229.113
85,0,61.5937,469.82,1138.15,83.9328,197.199,1151.32,-134.989,365.414,1210.55,-123.032,262.052,1203.61,-42.2456,513.188,861.122,-85.3363,479.98,668.213,-156.231,475.248,505.965,-191.349,402.348,251.824,-257.7,354.053,216.741,-45.6965,401.47,189.391,126.519,126.683,880.964,181.684,162.059,698.36,175.5,150.879,487.228,180.809,187.645,272.262,112.972,226.69,220.118,326.944,197.957,229.103
86,0,61.3668,469.341,1137.69,84.5141,196.74,1151.28,-135.124,364.06,1210.3,-122.782,260.826,1203.45,-43.8647,512.473,861.101,-88.0721,479.403,668.464,-160.098,474.925,506.734,-197.352,402.359,252.851,-264.017,354.244,218.374,-52.4438,401.394,189.193,125.572,126.228,880.128,180.178,162.163,697.66,178.712,150.898,486.204,189.875,187.712,271.065,123.171,226.681,218.214,337.173,198.384,228.946
87,0,61.3075,468.826,1137.19,85.2557,196.236,1151.21,-135.121,362.61,1210.01,-122.383,259.512,1203.24,-45.3204,511.724,861.093,-90.5874,478.79,668.71,-163.808,474.578,507.538,-203.362,402.386,253.96,-270.34,354.462,220.104,-59.2262,401.327,189.004,124.725,125.826,879.217,178.768,162.259,696.899,181.34,150.964,485.262,197.521,187.91,270.119,131.77,226.83,216.817,345.779,198.927,228.597
88,0,61.4207,468.271,1136.67,86.1591,195.683,1151.11,-134.972,361.075,1209.67,-121.829,258.117,1202.97,-46.6065,510.941,861.095,-92.8658,478.144,668.944,-167.351,474.206,508.375,-209.38,402.43,255.159,-276.672,354.704,221.941,-66.0434,401.272,188.829,124.037,125.488,878.267,177.474,162.346,696.092,183.377,151.077,484.379,203.693,188.239,269.359,138.708,227.134,215.839,352.713,199.571,228.024
89,0,61.7102,467.673,1136.12,87.2244,195.081,1151,-134.667,359.467,1209.28,-121.12,256.649,1202.67,-47.7148,510.123,861.105,-94.8875,477.466,669.161,-170.712,473.809,509.246,-215.406,402.486,256.455,-283.016,354.963,223.893,-72.8937,401.228,188.675,123.56,125.221,877.316,176.309,162.422,695.252,184.821,151.237,483.536,208.365,188.692,268.721,143.953,227.587,215.195,357.958,200.3,227.206
90,0,62.1778,467.028,1135.56,88.4505,194.426,1150.87,-134.201,357.798,1208.87,-120.254,255.116,1202.33,-48.6343,509.273,861.118,-96.629,476.762,669.353,-173.873,473.388,510.149,-221.432,402.553,257.854,-289.374,355.235,225.974,-79.7744,401.196,188.547,123.34,125.031,876.395,175.277,162.486,694.39,185.678,151.44,482.711,211.541,189.263,268.148,147.513,228.174,214.801,361.525,201.097,226.137
91,0,62.8237,466.331,1135,89.8344,193.718,1150.74,-133.569,356.08,1208.42,-119.232,253.526,1201.97,-49.3509,508.392,861.129,-98.0632,476.038,669.512,-176.811,472.948,511.081,-227.446,402.626,259.363,-295.741,355.513,228.195,-86.6815,401.173,188.451,123.414,124.919,875.533,174.376,162.532,693.514,185.958,151.68,481.885,213.253,189.936,267.588,149.428,228.879,214.578,363.463,201.938,224.825
92,0,63.6462,465.577,1134.45,91.3717,192.954,1150.61,-132.767,354.325,1207.95,-118.055,251.888,1201.59,-49.8471,507.484,861.132,-99.1595,475.303,669.63,-179.501,472.494,512.039,-233.43,402.704,260.987,-302.108,355.791,230.574,-93.609,401.158,188.39,123.807,124.882,874.75,173.595,162.556,692.628,185.679,151.951,481.042,213.562,190.694,266.999,149.774,229.68,214.458,363.85,202.801,223.291
93,0,64.6414,464.761,1133.91,93.0564,192.133,1150.49,-131.796,352.545,1207.46,-116.728,250.207,1201.19,-50.1019,506.552,861.12,-99.8845,474.568,669.697,-181.911,472.033,513.021,-239.356,402.783,262.731,-308.459,356.066,233.129,-100.55,401.146,188.366,124.525,124.91,874.06,172.916,162.549,691.736,184.866,152.24,480.167,212.555,191.516,266.35,148.654,230.551,214.382,362.795,203.661,221.569
94,0,65.8033,463.879,1133.39,94.8807,191.254,1150.39,-130.658,350.748,1206.95,-115.255,248.491,1200.8,-50.0916,505.602,861.086,-100.202,473.843,669.705,-184.008,471.575,514.022,-245.192,402.862,264.6,-314.769,356.335,235.88,-107.494,401.135,188.378,125.561,124.988,873.468,172.316,162.504,690.84,183.546,152.538,479.25,210.338,192.377,265.617,146.199,231.464,214.301,360.43,204.491,219.702
95,0,67.1239,462.927,1132.91,96.835,190.315,1150.3,-129.357,348.946,1206.45,-113.643,246.746,1200.41,-49.7896,504.64,861.023,-100.075,473.145,669.644,-185.755,471.131,515.038,-250.896,402.941,266.601,-321.005,356.599,238.851,-114.434,401.119,188.424,126.889,125.098,872.974,171.768,162.412,689.938,181.756,152.831,478.285,207.038,193.252,264.788,142.559,232.389,214.177,356.907,205.269,217.742
96,0,68.5927,461.9,1132.46,98.9079,189.318,1150.24,-127.9,347.144,1205.94,-111.9,244.976,1200.04,-49.1676,503.675,860.925,-99.466,472.488,669.506,-187.111,470.713,516.065,-256.419,403.023,268.739,-327.123,356.861,242.068,-121.357,401.09,188.496,128.467,125.214,872.568,171.241,162.264,689.029,179.531,153.104,477.267,202.794,194.113,263.861,137.896,233.297,213.985,352.392,205.972,215.742
97,0,70.1973,460.795,1132.07,101.086,188.261,1150.19,-126.299,345.349,1205.45,-110.037,243.187,1199.69,-48.1965,502.713,860.787,-98.3364,471.889,669.286,-188.035,470.337,517.101,-261.705,403.111,271.021,-333.068,357.127,245.559,-128.254,401.041,188.589,130.236,125.307,872.234,170.702,162.048,688.112,176.913,153.344,476.197,197.751,194.934,262.839,132.38,234.16,213.709,347.054,206.582,213.755
98,0,71.9233,459.61,1131.73,103.356,187.145,1150.17,-124.565,343.565,1204.96,-108.065,241.38,1199.38,-46.8473,501.764,860.604,-96.6509,471.365,668.978,-188.485,470.017,518.143,-266.696,403.211,273.457,-338.777,357.405,249.352,-135.113,400.965,188.69,132.128,125.348,871.953,170.117,161.757,687.185,173.944,153.537,475.078,192.056,195.691,261.734,126.183,234.951,213.342,341.061,207.085,211.83
99,0,73.7542,458.344,1131.44,105.7,185.971,1150.17,-122.714,341.796,1204.5,-105.997,239.559,1199.1,-45.0929,500.838,860.375,-94.3767,470.931,668.58,-188.42,469.77,519.191,-271.328,403.331,276.056,-344.174,357.705,253.479,-141.924,400.853,188.791,134.064,125.305,871.703,169.454,161.382,686.245,170.667,153.671,473.915,185.854,196.362,260.562,119.467,235.65,212.885,334.576,207.472,210.013
100,0,75.6721,456.995,1131.22,108.101,184.741,1150.19,-120.763,340.043,1204.06,-103.85,237.726,1198.86,-42.9087,499.944,860.097,-91.485,470.603,668.092,-187.799,469.612,520.244,-275.536,403.48,278.831,-349.18,358.037,257.967,-148.677,400.695,188.881,135.962,125.149,871.458,168.682,160.916,685.291,167.124,153.734,472.718,179.279,196.929,259.343,112.385,236.239,212.345,327.745,207.741,208.336
101,0,77.6574,455.564,1131.07,110.54,183.457,1150.23,-118.732,338.307,1203.64,-101.639,235.883,1198.67,-40.2747,499.092,859.774,-87.9524,470.396,667.517,-186.587,469.558,521.306,-279.257,403.667,281.796,-353.707,358.412,262.844,-155.361,400.485,188.953,137.741,124.852,871.197,167.772,160.355,684.323,163.358,153.718,471.496,172.456,197.38,258.097,105.075,236.707,211.734,320.699,207.894,206.826
102,0,79.6897,454.054,1130.98,112.997,182.122,1150.28,-116.642,336.588,1203.26,-99.3813,234.03,1198.53,-37.1766,498.29,859.409,-83.762,470.32,666.862,-184.751,469.622,522.381,-282.428,403.903,284.965,-357.665,358.838,268.135,-161.964,400.215,189.004,139.324,124.392,870.898,166.7,159.694,683.341,159.407,153.617,470.261,165.493,197.706,256.846,97.6532,237.05,211.068,313.546,207.941,205.498
103,0,81.7476,452.468,1130.96,115.451,180.737,1150.33,-114.514,334.884,1202.92,-97.0971,232.17,1198.45,-33.6068,497.546,859.009,-78.9039,470.385,666.136,-182.263,469.815,523.475,-284.994,404.198,288.355,-360.966,359.319,273.86,-168.472,399.881,189.037,140.645,123.756,870.544,165.447,158.933,682.346,155.306,153.427,469.023,158.482,197.907,255.609,90.2177,237.267,210.364,306.375,207.892,204.356
104,0,83.8096,450.81,1131,117.882,179.308,1150.38,-112.373,333.193,1202.62,-94.8058,230.305,1198.42,-29.5656,496.867,858.583,-73.3764,470.596,665.353,-179.105,470.146,524.597,-286.906,404.56,291.983,-363.525,359.858,280.031,-174.865,399.483,189.063,141.65,122.936,870.125,163.999,158.075,681.342,151.088,153.147,467.795,151.496,197.985,254.406,82.844,237.364,209.639,299.253,207.766,203.396
105,0,85.854,449.086,1131.12,120.268,177.837,1150.43,-110.24,331.515,1202.36,-92.528,228.436,1198.46,-25.0621,496.256,858.143,-67.1862,470.952,664.531,-175.262,470.62,525.757,-288.122,404.994,295.864,-365.267,360.45,286.655,-181.119,399.023,189.103,142.298,121.931,869.633,162.344,157.124,680.333,146.781,152.781,466.589,144.592,197.948,253.25,75.5877,237.353,208.912,292.226,207.578,202.608
106,0,87.8599,447.303,1131.29,122.588,176.328,1150.47,-108.139,329.849,1202.14,-90.2844,226.567,1198.54,-20.1145,495.716,857.703,-60.3486,471.452,663.688,-170.73,471.239,526.967,-288.613,405.504,300.011,-366.128,361.086,293.726,-187.201,398.51,189.186,142.567,120.75,869.069,160.479,156.086,679.321,142.41,152.333,465.415,137.809,197.808,252.155,68.4854,237.247,208.198,285.324,207.348,201.973
107,0,89.8068,445.47,1131.53,124.823,174.787,1150.5,-106.093,328.193,1201.96,-88.096,224.702,1198.69,-14.7503,495.247,857.277,-52.8879,472.088,662.849,-165.515,471.999,528.24,-288.359,406.089,304.435,-366.061,361.749,301.231,-193.063,397.959,189.354,142.449,119.41,868.437,158.403,154.971,678.313,137.994,151.812,464.282,131.171,197.579,251.131,61.5571,237.063,207.512,278.56,207.094,201.471
108,0,91.6759,443.596,1131.82,126.951,173.219,1150.51,-104.123,326.548,1201.83,-85.9832,222.845,1198.88,-9.00625,494.846,856.883,-44.8363,472.847,662.039,-159.628,472.893,529.591,-287.352,406.746,309.141,-365.038,362.419,309.14,-198.65,397.392,189.656,141.951,117.93,867.747,156.12,153.79,677.314,133.55,151.227,463.199,124.69,197.28,250.182,54.8091,236.819,206.866,271.939,206.831,201.08
109,0,93.4499,441.691,1132.17,128.957,171.627,1150.49,-102.249,324.914,1201.74,-83.9659,221.003,1199.13,-2.92743,494.51,856.539,-36.2345,473.714,661.287,-153.092,473.909,531.032,-285.594,407.468,314.127,-363.049,363.071,317.411,-203.887,396.837,190.148,141.092,116.339,867.012,153.639,152.556,676.329,129.087,150.59,462.172,118.367,196.927,249.314,48.2368,236.534,206.271,265.453,206.573,200.775
110,0,95.1133,439.765,1132.57,130.822,170.018,1150.44,-100.489,323.294,1201.69,-82.0626,219.18,1199.41,3.43334,494.231,856.262,-27.13,474.669,660.621,-145.937,475.028,532.578,-283.099,408.244,319.384,-360.108,363.677,325.987,-208.687,396.33,190.888,139.901,114.664,866.248,150.969,151.283,675.364,124.616,149.914,461.206,112.194,196.537,248.525,41.828,236.226,205.731,259.093,206.33,200.535
111,0,96.6528,437.83,1133.02,132.533,168.398,1150.36,-98.8591,321.69,1201.68,-80.2903,217.386,1199.74,10.017,494.001,856.072,-17.5769,475.689,660.072,-138.202,476.231,534.24,-279.888,409.06,324.891,-356.248,364.208,334.793,-212.944,395.912,191.936,138.411,112.936,865.471,148.124,149.986,674.424,120.141,149.211,460.304,106.158,196.128,247.816,35.565,235.91,205.252,252.843,206.108,200.34
112,0,98.0575,435.898,1133.52,134.077,166.773,1150.26,-97.3722,320.106,1201.71,-78.6644,215.626,1200.1,16.7598,493.81,855.984,-7.63449,476.751,659.67,-129.934,477.493,536.028,-275.991,409.901,330.619,-351.523,364.636,343.742,-216.542,395.63,193.345,136.661,111.185,864.695,145.118,148.68,673.514,115.665,148.496,459.469,100.243,195.712,247.184,29.4273,235.601,204.834,246.687,205.913,200.174
113,0,99.3191,433.98,1134.06,135.445,165.147,1150.12,-96.039,318.548,1201.79,-77.1977,213.91,1200.48,23.5951,493.649,856.016,2.6334,477.828,659.442,-121.183,478.785,537.948,-271.442,410.751,336.524,-346.001,364.937,352.726,-219.35,395.53,195.154,134.689,109.44,863.934,141.967,147.381,672.638,111.186,147.781,458.7,94.4289,195.304,246.625,23.3938,235.309,204.477,240.61,205.744,200.022
114,0,100.432,432.088,1134.64,136.628,163.528,1149.95,-94.8675,317.019,1201.9,-75.9008,212.244,1200.89,30.4553,493.508,856.182,13.1599,478.893,659.416,-112.006,480.08,540.002,-266.279,411.592,342.549,-339.763,365.091,361.628,-221.23,395.66,197.389,132.532,107.725,863.198,138.685,146.103,671.8,106.705,147.079,457.997,88.6976,194.912,246.133,17.4435,235.042,204.177,234.597,205.601,199.876
115,0,101.392,430.231,1135.26,137.622,161.922,1149.74,-93.8627,315.527,1202.04,-74.7814,210.638,1201.3,37.2738,493.374,856.492,23.8761,479.92,659.615,-102.465,481.345,542.188,-260.538,412.409,348.626,-332.9,365.088,370.316,-222.042,396.061,200.054,130.224,106.064,862.494,135.286,144.861,671.002,102.215,146.401,457.358,83.03,194.545,245.704,11.5575,234.808,203.929,228.636,205.479,199.728
116,0,102.198,428.421,1135.92,138.424,160.335,1149.51,-93.0269,314.076,1202.22,-73.8445,209.098,1201.73,43.987,493.24,856.957,34.7119,480.886,660.06,-92.6215,482.551,544.5,-254.256,413.188,354.673,-325.502,364.925,378.649,-221.648,396.766,203.129,127.792,104.478,861.825,131.784,143.667,670.246,97.7138,145.758,456.78,77.4089,194.208,245.332,5.71886,234.609,203.727,222.713,205.376,199.576
117,0,102.853,426.666,1136.61,139.035,158.774,1149.26,-92.3594,312.674,1202.43,-73.092,207.63,1202.16,50.5362,493.097,857.583,45.5974,481.767,660.765,-82.5391,483.669,546.924,-247.466,413.919,360.597,-317.66,364.61,386.479,-219.919,397.795,206.568,125.262,102.981,861.192,128.19,142.533,669.533,93.1942,145.156,456.261,71.8188,193.904,245.011,-0.0869578,234.446,203.564,216.819,205.286,199.42
118,0,103.359,424.975,1137.34,139.457,157.245,1148.98,-91.8574,311.326,1202.67,-72.5232,206.24,1202.58,56.8691,492.937,858.372,56.4633,482.544,661.742,-72.2812,484.672,549.441,-240.194,414.594,366.296,-309.456,364.161,393.658,-216.741,399.154,210.299,122.655,101.588,860.59,124.513,141.468,668.864,88.6499,144.603,455.795,66.2461,193.636,244.738,-5.87191,234.32,203.434,210.946,205.205,199.26
119,0,103.721,423.355,1138.11,139.696,155.755,1148.69,-91.5155,310.038,1202.95,-72.1342,204.933,1203,62.941,492.755,859.325,67.2421,483.2,662.995,-61.9093,485.536,552.028,-232.462,415.209,371.66,-300.96,363.608,400.038,-212.02,400.83,214.231,119.988,100.309,860.015,120.761,140.48,668.239,84.074,144.103,455.38,60.679,193.403,244.505,-11.6457,234.228,203.328,205.085,205.129,199.1
120,0,103.948,421.811,1138.91,139.757,154.309,1148.37,-91.3266,308.813,1203.25,-71.9188,203.711,1203.41,68.7157,492.548,860.438,77.8683,483.722,664.523,-51.4821,486.242,554.655,-224.285,415.765,376.579,-292.228,362.985,405.48,-205.688,402.793,218.25,117.273,99.1535,859.461,116.938,139.574,667.655,79.4593,143.659,455.01,55.1074,193.205,244.309,-17.4163,234.166,203.242,199.23,205.056,198.943
121,0,104.046,420.35,1139.74,139.651,152.913,1148.05,-91.2816,307.657,1203.58,-71.8682,202.576,1203.8,74.1663,492.313,861.705,88.2796,484.101,666.318,-41.0548,486.775,557.288,-215.67,416.265,380.94,-283.298,362.338,409.855,-197.707,404.993,222.232,114.524,98.1272,858.919,113.048,138.755,667.113,74.7987,143.272,454.682,49.5228,193.042,244.144,-23.1897,234.132,203.169,193.375,204.983,198.793
122,0,104.026,418.973,1140.61,139.387,151.574,1147.72,-91.3703,306.57,1203.95,-71.9717,201.529,1204.18,79.2748,492.051,863.116,98.4165,484.331,668.366,-30.6784,487.126,559.887,-206.618,416.717,384.636,-274.188,361.71,413.052,-188.067,407.368,226.05,111.748,97.2343,858.384,109.093,138.025,666.61,70.0855,142.941,454.391,43.9178,192.912,244.007,-28.9712,234.119,203.105,187.514,204.909,198.651
123,0,103.898,417.684,1141.51,138.977,150.297,1147.38,-91.5813,305.557,1204.34,-72.2167,200.569,1204.55,84.032,491.762,864.661,108.223,484.41,670.646,-20.3987,487.291,562.411,-197.127,417.13,387.568,-264.898,361.15,414.977,-176.791,409.84,229.578,108.954,96.477,857.85,105.072,137.384,666.145,65.3135,142.665,454.133,38.2863,192.813,243.894,-34.7649,234.124,203.049,181.642,204.833,198.519
124,0,103.673,416.483,1142.43,138.432,149.087,1147.04,-91.9027,304.617,1204.76,-72.5896,199.693,1204.9,88.437,491.448,866.326,117.648,484.339,673.133,-10.2569,487.272,564.817,-187.186,417.513,389.65,-255.409,360.7,415.559,-163.93,412.328,232.7,106.146,95.8551,857.315,100.986,136.829,665.714,60.4772,142.44,453.906,32.6228,192.741,243.8,-40.5743,234.14,202.996,175.756,204.754,198.398
125,0,103.361,415.371,1143.39,137.767,147.948,1146.69,-92.3222,303.75,1205.2,-73.0756,198.899,1205.23,92.4958,491.114,868.094,126.643,484.121,675.794,-0.28853,487.076,567.058,-176.786,417.88,390.81,-245.686,360.396,414.754,-149.563,414.75,235.321,103.328,95.3664,856.776,96.8324,136.358,665.317,55.5724,142.263,453.705,26.9227,192.696,243.723,-46.4027,234.162,202.949,169.851,204.673,198.287
126,0,102.974,414.347,1144.36,136.993,146.885,1146.35,-92.8273,302.956,1205.67,-73.6597,198.184,1205.55,96.2199,490.764,869.948,135.164,483.765,678.593,9.47558,486.715,569.092,-165.911,418.238,390.998,-235.678,360.267,412.542,-133.789,417.031,237.369,100.502,95.0065,856.237,92.6112,135.966,664.949,50.5957,142.128,453.528,21.1825,192.673,243.661,-52.2527,234.185,202.907,163.924,204.587,198.182
127,0,102.525,413.41,1145.35,136.125,145.9,1146,-93.4058,302.234,1206.16,-74.3269,197.543,1205.86,99.6255,490.402,871.871,143.172,483.277,681.49,19.0095,486.205,570.876,-154.55,418.598,390.185,-225.328,360.328,408.933,-116.728,419.104,238.799,97.6661,94.7686,855.7,88.3217,135.648,664.608,45.5453,142.029,453.371,15.399,192.67,243.611,-58.127,234.204,202.873,157.975,204.497,198.081
128,0,102.022,412.557,1146.36,135.174,144.996,1145.65,-94.0458,301.582,1206.67,-75.0623,196.972,1206.15,102.731,490.035,873.841,150.632,482.669,684.441,28.2915,485.564,572.369,-142.687,418.965,388.365,-214.566,360.586,403.962,-98.5126,420.919,239.599,94.8185,94.6444,855.173,83.9644,135.397,664.292,40.4209,141.963,453.234,9.57012,192.683,243.571,-64.0278,234.217,202.849,151.999,204.402,197.98
129,0,101.478,411.787,1147.37,134.153,144.176,1145.29,-94.7359,300.999,1207.19,-75.8519,196.468,1206.42,105.557,489.668,875.838,157.514,481.951,687.4,37.3036,484.814,573.538,-130.314,419.342,385.555,-203.326,361.032,397.69,-79.2817,422.447,239.786,91.9546,94.624,854.661,79.541,135.207,663.997,35.2237,141.922,453.113,3.69455,192.709,243.541,-69.9568,234.22,202.838,145.998,204.298,197.873
130,0,100.903,411.097,1148.38,133.074,143.439,1144.93,-95.4656,300.482,1207.72,-76.6827,196.026,1206.69,108.123,489.307,877.841,163.792,481.137,690.323,46.031,483.977,574.353,-117.423,419.731,381.798,-191.539,361.649,390.204,-59.1795,423.674,239.408,89.0689,94.6962,854.173,75.0551,135.07,663.721,29.9565,141.903,453.006,-2.22808,192.745,243.521,-75.9156,234.212,202.844,139.97,204.186,197.757
131,0,100.307,410.483,1149.38,131.948,142.786,1144.56,-96.2249,300.03,1208.26,-77.5428,195.645,1206.93,110.446,488.958,879.828,169.448,480.237,693.162,54.4612,483.075,574.791,-104.012,420.128,377.159,-179.143,362.409,381.614,-38.3491,424.605,238.536,86.1559,94.8498,853.717,70.5119,134.98,663.461,24.6241,141.901,452.912,-8.19721,192.788,243.509,-81.9054,234.195,202.872,133.914,204.062,197.627
132,0,99.6985,409.943,1150.36,130.784,142.215,1144.18,-97.0044,299.642,1208.8,-78.4215,195.322,1207.16,112.543,488.628,881.777,174.467,479.266,695.873,62.5836,482.13,574.838,-90.087,420.528,371.723,-166.089,363.279,372.049,-16.9305,425.263,237.264,83.211,95.0736,853.297,65.9186,134.93,663.213,19.2323,141.912,452.83,-14.2113,192.835,243.507,-87.9266,234.168,202.924,127.831,203.925,197.482
133,0,99.087,409.473,1151.31,129.591,141.727,1143.78,-97.7956,299.317,1209.33,-79.3099,195.055,1207.37,114.425,488.323,883.665,178.841,478.236,698.416,70.3885,481.161,574.487,-75.6611,420.925,365.595,-152.339,364.22,361.657,4.94156,425.679,235.701,80.2314,95.3571,852.92,61.2841,134.913,662.974,13.7888,141.933,452.758,-20.2679,192.884,243.515,-93.9794,234.136,203.005,121.721,203.774,197.319
134,0,98.4808,409.072,1152.22,128.379,141.316,1143.35,-98.5908,299.056,1209.84,-80.2002,194.846,1207.56,116.102,488.049,885.469,182.568,477.158,700.751,77.8672,480.184,573.738,-60.7577,421.309,358.894,-137.874,365.194,350.6,27.1386,425.894,233.964,77.217,95.6913,852.586,56.6194,134.924,662.741,8.30255,141.961,452.694,-26.3637,192.933,243.535,-100.063,234.101,203.116,115.583,203.609,197.138
135,0,97.8876,408.735,1153.08,127.154,140.982,1142.91,-99.3825,298.859,1210.33,-81.086,194.695,1207.72,117.577,487.811,887.168,185.653,476.044,702.845,85.0109,479.215,572.602,-45.4116,421.67,351.75,-122.697,366.162,339.05,49.5381,425.949,232.172,74.1715,96.0685,852.294,51.9367,134.958,662.511,2.78336,141.995,452.637,-32.4946,192.981,243.566,-106.178,234.068,203.261,109.417,203.429,196.94
136,0,97.3149,408.462,1153.88,125.923,140.718,1142.43,-100.164,298.728,1210.8,-81.9621,194.603,1207.85,118.85,487.615,888.739,188.106,474.906,704.671,91.8108,478.263,571.095,-29.6704,421.998,344.301,-106.833,367.09,327.186,72.0228,425.885,230.437,71.1023,96.4826,852.039,47.2496,135.012,662.28,-2.758,142.033,452.586,-38.656,193.027,243.609,-112.322,234.04,203.44,103.222,203.237,196.726
137,0,96.7696,408.248,1154.61,124.693,140.522,1141.93,-100.929,298.665,1211.22,-82.8243,194.574,1207.95,119.921,487.466,890.161,189.945,473.754,706.206,98.2579,477.337,569.243,-13.5959,422.283,336.686,-90.3333,367.949,315.19,94.4783,425.735,228.864,68.0207,96.9291,851.812,42.5723,135.081,662.045,-8.31026,142.075,452.539,-44.8429,193.071,243.667,-118.494,234.023,203.657,96.9988,203.034,196.5
138,0,96.2583,408.094,1155.26,123.469,140.388,1141.38,-101.672,298.673,1211.59,-83.6694,194.612,1208.01,120.782,487.367,891.415,191.195,472.597,707.435,104.343,476.441,567.077,2.73465,422.514,329.044,-73.2759,368.716,303.242,116.791,425.524,227.54,64.9415,97.4049,851.604,37.9195,135.163,661.804,-13.862,142.12,452.496,-51.0499,193.112,243.738,-124.691,234.017,203.91,90.7456,202.824,196.264
139,0,95.7872,407.996,1155.82,122.258,140.311,1140.8,-102.386,298.754,1211.92,-84.4945,194.72,1208.02,121.43,487.32,892.482,191.887,471.444,708.35,110.056,475.577,564.635,19.2286,422.683,321.506,-55.7661,369.373,291.516,138.847,425.268,226.531,61.8821,97.9075,851.402,33.3058,135.256,661.554,-19.4019,142.166,452.456,-57.2716,193.15,243.825,-130.914,234.026,204.201,84.4624,202.61,196.022
140,0,95.3623,407.954,1156.28,121.064,140.286,1140.18,-103.066,298.912,1212.18,-85.2973,194.902,1207.98,121.855,487.327,893.346,192.058,470.303,708.947,115.388,474.744,561.958,35.7775,422.781,314.195,-37.9355,369.908,280.176,160.528,424.972,225.88,58.8614,98.435,851.192,28.7453,135.359,661.292,-24.9191,142.215,452.418,-63.5031,193.185,243.926,-137.159,234.048,204.529,78.149,202.396,195.778
141,0,94.9892,407.965,1156.63,119.895,140.309,1139.52,-103.707,299.15,1212.37,-86.0753,195.163,1207.88,122.055,487.387,893.996,191.75,469.182,709.232,120.33,473.94,559.089,52.258,422.799,307.217,-19.9403,370.315,269.371,181.708,424.632,225.603,55.8986,98.9855,850.96,24.2512,135.471,661.018,-30.4034,142.263,452.383,-69.7397,193.215,244.044,-143.425,234.082,204.894,71.8054,202.185,195.533
142,0,94.6736,408.03,1156.88,118.755,140.374,1138.81,-104.303,299.471,1212.5,-86.8259,195.507,1207.73,122.025,487.499,894.42,191.011,468.087,709.214,124.872,473.161,556.074,68.5332,422.733,300.663,-1.95893,370.589,259.232,202.257,424.237,225.693,53.0118,99.5566,850.695,19.8353,135.592,660.729,-35.8459,142.311,452.35,-75.9772,193.239,244.178,-149.71,234.123,205.296,65.4322,201.98,195.289
143,0,94.4207,408.148,1157.02,117.651,140.477,1138.07,-104.849,299.878,1212.55,-87.5463,195.937,1207.52,121.767,487.658,894.613,189.891,467.024,708.911,129.007,472.404,552.959,84.4553,422.576,294.605,15.8125,370.731,249.865,222.037,423.77,226.115,50.2171,100.145,850.385,15.508,135.721,660.427,-41.2383,142.356,452.32,-82.2122,193.255,244.33,-156.013,234.165,205.736,59.0301,201.784,195.05
144,0,94.2358,408.317,1157.03,116.59,140.614,1137.28,-105.339,300.372,1212.51,-88.2328,196.455,1207.24,121.287,487.86,894.573,188.446,466,708.342,132.729,471.664,549.788,99.8682,422.323,289.091,33.1647,370.743,241.354,240.906,423.215,226.81,47.5268,100.747,850.022,11.2782,135.858,660.112,-46.5741,142.398,452.295,-88.4423,193.258,244.501,-162.333,234.199,206.213,52.6,201.598,194.814
145,0,94.1238,408.538,1156.94,115.578,140.784,1136.46,-105.768,300.956,1212.4,-88.8813,197.065,1206.89,120.598,488.096,894.303,186.73,465.017,707.533,136.033,470.938,546.601,114.612,421.972,284.151,49.8818,370.626,233.754,258.716,422.553,227.703,44.9493,101.358,849.601,7.15284,136.005,659.784,-51.8476,142.432,452.277,-94.6656,193.246,244.694,-168.668,234.217,206.73,46.1431,201.422,194.583
146,0,94.0897,408.81,1156.73,114.625,140.983,1135.6,-106.129,301.63,1212.22,-89.4869,197.765,1206.49,119.717,488.36,893.809,184.8,464.082,706.51,138.915,470.221,543.438,128.526,421.519,279.792,65.7474,370.386,227.093,275.321,421.77,228.7,42.4883,101.971,849.12,3.13774,136.161,659.446,-57.0546,142.458,452.269,-100.882,193.214,244.911,-175.017,234.208,207.288,39.6606,201.255,194.355
147,0,94.1381,409.133,1156.42,113.737,141.212,1134.72,-106.419,302.392,1211.95,-90.0437,198.556,1206.02,118.671,488.643,893.104,182.711,463.197,705.305,141.375,469.512,540.331,141.456,420.963,276.002,80.5522,370.026,221.37,290.579,420.857,229.701,40.1432,102.581,848.584,-0.762665,136.327,659.1,-62.1917,142.474,452.273,-107.09,193.157,245.156,-181.382,234.162,207.892,33.1534,201.093,194.132
148,0,94.2734,409.508,1156.01,112.923,141.469,1133.81,-106.631,303.242,1211.61,-90.5453,199.436,1205.49,117.492,488.935,892.204,180.518,462.366,703.946,143.415,468.81,537.311,153.257,420.305,272.749,94.1012,369.551,216.559,304.359,419.81,230.601,37.9087,103.181,847.996,-4.54468,136.506,658.75,-67.2562,142.478,452.296,-113.292,193.07,245.433,-187.76,234.067,208.545,26.6222,200.934,193.91
149,0,94.4997,409.934,1155.51,112.192,141.757,1132.89,-106.76,304.176,1211.19,-90.9846,200.401,1204.91,116.217,489.227,891.128,178.269,461.593,702.465,145.039,468.116,534.399,163.8,419.548,269.988,106.221,368.967,212.608,316.546,418.633,231.3,35.7767,103.765,847.365,-8.20492,136.698,658.4,-72.2458,142.468,452.34,-119.488,192.95,245.748,-194.153,233.916,209.255,20.0673,200.774,193.691
150,0,94.8207,410.412,1154.92,111.553,142.076,1131.96,-106.802,305.19,1210.71,-91.3539,201.447,1204.28,114.89,489.511,889.901,176.012,460.879,700.892,146.255,467.43,531.615,172.976,418.694,267.662,116.767,368.282,209.445,327.045,417.339,231.71,33.7365,104.326,846.703,-11.7397,136.905,658.053,-77.1581,142.445,452.412,-125.679,192.793,246.108,-200.56,233.701,210.027,13.4888,200.607,193.474
151,0,95.2396,410.941,1154.27,111.014,142.431,1131.03,-106.751,306.281,1210.18,-91.6452,202.57,1203.6,113.556,489.78,888.548,173.788,460.228,699.256,147.072,466.757,528.973,180.701,417.751,265.706,125.628,367.505,206.984,335.791,415.945,231.757,31.7769,104.861,846.022,-15.1445,137.131,657.714,-81.9901,142.41,452.517,-131.867,192.596,246.521,-206.982,233.418,210.872,6.88623,200.429,193.26
152,0,95.759,411.523,1153.56,110.584,142.824,1130.11,-106.604,307.441,1209.59,-91.8504,203.761,1202.9,112.265,490.028,887.098,171.631,459.642,697.584,147.503,466.1,526.481,186.919,416.727,264.052,132.73,366.647,205.124,342.748,414.475,231.391,29.8877,105.366,845.335,-18.4132,137.378,657.387,-86.738,142.364,452.661,-138.052,192.358,246.994,-213.417,233.063,211.8,0.259219,200.236,193.048
153,0,96.381,412.157,1152.8,110.271,143.26,1129.21,-106.356,308.666,1208.97,-91.9616,205.015,1202.17,111.063,490.253,885.581,169.571,459.124,695.899,147.563,465.466,524.143,191.604,415.633,262.631,138.044,365.721,203.762,347.918,412.961,230.585,28.0611,105.842,844.656,-21.5375,137.651,657.074,-91.3962,142.312,452.849,-144.233,192.08,247.536,-219.866,232.639,212.821,-6.39252,200.025,192.842
154,0,97.1065,412.844,1152.02,110.082,143.745,1128.35,-106.006,309.948,1208.31,-91.9712,206.324,1201.42,109.996,490.452,884.028,167.63,458.674,694.224,147.273,464.86,521.961,194.762,414.483,261.378,141.579,364.743,202.795,351.335,411.435,229.339,26.2937,106.289,843.995,-24.5065,137.954,656.781,-95.9574,142.256,453.089,-150.409,191.764,248.159,-226.326,232.149,213.949,-13.0687,199.794,192.642
155,0,97.9358,413.584,1151.23,110.023,144.283,1127.53,-105.551,311.28,1207.63,-91.8723,207.68,1200.67,109.101,490.627,882.468,165.824,458.296,692.578,146.652,464.291,519.934,196.432,413.291,260.236,143.387,363.727,202.121,353.075,409.933,227.68,24.5877,106.714,843.365,-27.3065,138.29,656.508,-100.412,142.203,453.385,-156.575,191.415,248.872,-232.795,231.6,215.198,-19.7683,199.542,192.453
156,0,98.8681,414.379,1150.45,110.099,144.881,1126.75,-104.989,312.656,1206.95,-91.6592,209.075,1199.93,108.413,490.783,880.93,164.161,457.99,690.976,145.725,463.766,518.057,196.682,412.076,259.156,143.559,362.694,201.653,353.243,408.488,225.658,22.9518,107.124,842.773,-29.9199,138.667,656.258,-104.747,142.158,453.744,-162.726,191.037,249.686,-239.267,231.001,216.583,-26.4888,199.27,192.275
157,0,99.9013,415.227,1149.68,110.314,145.543,1126.05,-104.321,314.069,1206.26,-91.3271,210.502,1199.21,107.955,490.925,879.44,162.644,457.759,689.432,144.515,463.293,516.326,195.606,410.856,258.101,142.219,361.66,201.311,351.978,407.133,223.341,21.4023,107.53,842.226,-32.3262,139.088,656.031,-108.948,142.129,454.169,-168.852,190.638,250.612,-245.735,230.363,218.122,-33.2261,198.981,192.113
158,0,101.032,416.129,1148.94,110.67,146.275,1125.41,-103.547,315.512,1205.59,-90.8729,211.954,1198.51,107.739,491.062,878.02,161.27,457.604,687.956,143.051,462.881,514.735,193.325,409.652,257.045,139.519,360.645,201.036,349.438,405.896,220.813,19.9627,107.947,841.729,-34.5013,139.558,655.827,-112.996,142.122,454.665,-174.943,190.227,251.662,-252.191,229.699,219.831,-39.9745,198.68,191.968
159,0,102.257,417.087,1148.25,111.167,147.082,1124.86,-102.669,316.981,1204.95,-90.2949,213.424,1197.85,107.769,491.203,876.693,160.03,457.526,686.558,141.359,462.539,513.276,189.974,408.483,255.973,135.63,359.668,200.779,345.8,404.799,218.163,18.6635,108.391,841.283,-36.4178,140.082,655.644,-116.87,142.145,455.235,-180.983,189.811,252.846,-258.621,229.021,221.73,-46.7261,198.374,191.843
160,0,103.569,418.099,1147.61,111.805,147.969,1124.4,-101.691,318.471,1204.34,-89.5936,214.906,1197.23,108.035,491.359,875.472,158.911,457.525,685.242,139.465,462.272,511.944,185.703,407.369,254.883,130.737,358.743,200.513,341.249,403.854,215.481,17.5416,108.878,840.887,-38.0457,140.663,655.48,-120.545,142.202,455.884,-186.953,189.399,254.176,-265.009,228.342,223.836,-53.4713,198.069,191.739
161,0,104.962,419.166,1147.04,112.578,148.94,1124.04,-100.617,319.976,1203.78,-88.7713,216.397,1196.67,108.517,491.542,874.372,157.894,457.603,684.014,137.395,462.09,510.732,180.665,406.33,253.78,125.026,357.889,200.221,335.966,403.07,212.853,16.6382,109.429,840.54,-39.353,141.303,655.33,-123.995,142.301,456.611,-192.834,189,255.662,-271.334,227.673,226.17,-60.1991,197.776,191.656
162,0,106.426,420.287,1146.55,113.482,149.996,1123.78,-99.4527,321.496,1203.28,-87.8322,217.892,1196.17,109.185,491.763,873.398,156.959,457.757,682.876,135.174,461.995,509.633,175.014,405.381,252.677,118.682,357.116,199.9,330.127,402.444,210.353,15.9977,110.062,840.237,-40.3059,142.004,655.189,-127.191,142.443,457.42,-198.599,188.62,257.315,-277.571,227.024,228.75,-66.8971,197.504,191.594
163,0,107.954,421.464,1146.13,114.508,151.141,1123.64,-98.2054,323.027,1202.84,-86.7828,219.388,1195.73,110.001,492.034,872.554,156.081,457.989,681.828,132.821,461.995,508.643,168.899,404.537,251.593,111.877,356.436,199.558,323.889,401.969,208.043,15.6654,110.793,839.974,-40.8704,142.766,655.052,-130.102,142.632,458.31,-204.22,188.266,259.144,-283.691,226.402,231.597,-73.5529,197.263,191.551
164,0,109.533,422.693,1145.79,115.649,152.373,1123.6,-96.8835,324.568,1202.48,-85.6317,220.884,1195.37,110.917,492.363,871.841,155.234,458.298,680.869,130.354,462.089,507.754,162.455,403.809,250.548,104.767,355.856,199.208,317.389,401.629,205.967,15.6849,111.638,839.746,-41.0125,143.585,654.913,-132.696,142.867,459.282,-209.668,187.944,261.159,-289.66,225.814,234.728,-80.1543,197.063,191.527
165,0,111.152,423.976,1145.53,116.89,153.694,1123.69,-95.4968,326.119,1202.19,-84.3893,222.38,1195.08,111.883,492.76,871.252,154.39,458.681,679.996,127.787,462.281,506.962,155.804,403.202,249.562,97.487,355.38,198.867,310.742,401.407,204.153,16.0967,112.607,839.549,-40.6997,144.458,654.766,-134.941,143.148,460.336,-214.908,187.654,263.368,-295.44,225.264,238.163,-86.6902,196.914,191.517
166,0,112.798,425.311,1145.35,118.22,155.1,1123.88,-94.056,327.68,1201.98,-83.0681,223.875,1194.87,112.847,493.231,870.78,153.519,459.137,679.205,125.128,462.568,506.258,149.047,402.722,248.656,90.1468,355.011,198.552,304.035,401.282,202.611,16.9352,113.706,839.377,-39.9018,145.378,654.602,-136.803,143.47,461.471,-219.907,187.4,265.781,-300.986,224.753,241.919,-93.1514,196.824,191.521
167,0,114.458,426.695,1145.24,119.624,156.589,1124.19,-92.5733,329.252,1201.86,-81.682,225.37,1194.73,113.753,493.781,870.413,152.591,459.665,678.491,122.382,462.948,505.637,142.268,402.365,247.845,82.833,354.745,198.279,297.332,401.232,201.338,18.2276,114.937,839.227,-38.5915,146.337,654.417,-138.252,143.828,462.686,-224.627,187.179,268.403,-306.254,224.282,246.013,-99.5312,196.8,191.538
168,0,116.117,428.128,1145.2,121.084,158.155,1124.61,-91.0615,330.836,1201.82,-80.2467,226.866,1194.66,114.551,494.412,870.139,151.577,460.261,677.846,119.548,463.416,505.09,135.528,402.129,247.139,75.6075,354.579,198.061,290.673,401.234,200.318,19.992,116.296,839.098,-36.7458,147.326,654.205,-139.258,144.215,463.981,-229.033,186.991,271.243,-311.193,223.851,250.46,-105.826,196.847,191.568
169,0,117.761,429.606,1145.22,122.585,159.793,1125.13,-89.5345,332.433,1201.86,-78.7789,228.365,1194.66,115.191,495.126,869.941,150.447,460.924,677.263,116.624,463.967,504.611,128.871,402.004,246.544,68.5101,354.505,197.904,284.079,401.27,199.526,22.2367,117.77,838.987,-34.3465,148.334,653.96,-139.793,144.622,465.355,-233.087,186.831,274.307,-315.751,223.46,255.273,-112.033,196.966,191.614
170,0,119.375,431.127,1145.29,124.106,161.495,1125.74,-88.0068,334.043,1201.97,-77.2965,229.869,1194.73,115.629,495.921,869.802,149.174,461.651,676.732,113.602,464.592,504.189,122.323,401.98,246.06,61.5608,354.514,197.812,277.559,401.323,198.928,24.9592,119.344,838.895,-31.3808,149.348,653.681,-139.835,145.041,466.808,-236.753,186.695,277.6,-319.878,223.109,260.463,-118.154,197.156,191.681
171,0,120.945,432.687,1145.4,125.63,163.252,1126.43,-86.4932,335.668,1202.16,-75.8179,231.379,1194.85,115.829,496.795,869.705,147.732,462.438,676.243,110.474,465.283,503.815,115.895,402.043,245.681,54.7641,354.594,197.78,271.107,401.379,198.489,28.1467,120.995,838.824,-27.8418,150.355,653.364,-139.361,145.46,468.341,-239.997,186.578,281.126,-323.52,222.799,266.036,-124.19,197.413,191.779
172,0,122.457,434.283,1145.53,127.137,165.055,1127.2,-85.009,337.306,1202.41,-74.3619,232.898,1195.02,115.76,497.742,869.633,146.097,463.283,675.787,107.23,466.029,503.481,109.584,402.178,245.396,48.112,354.733,197.803,264.713,401.428,198.174,31.7763,122.695,838.776,-23.729,151.343,653.012,-138.357,145.869,469.954,-242.788,186.474,284.889,-326.629,222.532,271.997,-130.14,197.731,191.921
173,0,123.895,435.908,1145.67,128.608,166.894,1128.03,-83.5695,338.958,1202.72,-72.9471,234.426,1195.23,115.399,498.757,869.57,144.251,464.182,675.351,103.859,466.821,503.175,103.382,402.371,245.193,41.5881,354.918,197.87,258.364,401.464,197.948,35.816,124.413,838.755,-19.0481,152.297,652.626,-136.811,146.259,471.647,-245.094,186.379,288.889,-329.158,222.311,278.342,-136.003,198.098,192.123
174,0,125.249,437.559,1145.82,130.025,168.756,1128.91,-82.1899,340.622,1203.06,-71.592,235.964,1195.48,114.731,499.833,869.498,142.178,465.13,674.926,100.352,467.646,502.888,97.2723,402.605,245.054,35.1708,355.136,197.968,252.045,401.483,197.779,40.2257,126.115,838.765,-13.8115,153.205,652.212,-134.716,146.62,473.422,-246.891,186.287,293.123,-331.064,222.143,285.065,-141.769,198.501,192.407
175,0,126.504,439.23,1145.95,131.37,170.63,1129.83,-80.8849,342.295,1203.44,-70.3144,237.512,1195.74,113.749,500.963,869.406,139.868,466.123,674.501,96.7022,468.495,502.611,91.2357,402.867,244.961,28.8367,355.374,198.084,245.744,401.484,197.641,44.9591,127.766,838.811,-8.03747,154.056,651.779,-132.071,146.944,475.28,-248.156,186.196,297.589,-332.313,222.034,292.148,-147.421,198.925,192.798
176,0,127.651,440.914,1146.05,132.625,172.504,1130.77,-79.6684,343.974,1203.84,-69.131,239.069,1196.01,112.454,502.137,869.28,137.314,467.156,674.068,92.9028,469.357,502.335,85.2527,403.143,244.897,22.5629,355.62,198.206,239.451,401.468,197.511,49.965,129.332,838.896,-1.7506,154.839,651.336,-128.881,147.223,477.22,-248.869,186.102,302.276,-332.877,221.99,299.568,-152.93,199.35,193.321
177,0,128.679,442.606,1146.12,133.774,174.364,1131.72,-78.5537,345.655,1204.25,-68.0571,240.634,1196.29,110.853,503.346,869.112,134.516,468.222,673.619,88.9516,470.221,502.053,79.3049,403.421,244.845,16.3284,355.865,198.32,233.162,401.438,197.375,55.1892,130.78,839.027,5.01923,155.544,650.898,-125.153,147.454,479.244,-249.014,186.003,307.171,-332.737,222.02,307.287,-158.254,199.758,194.007
178,0,129.58,444.297,1146.15,134.805,176.2,1132.66,-77.5527,347.332,1204.66,-67.1067,242.205,1196.56,108.961,504.582,868.894,131.479,469.315,673.148,84.8492,471.076,501.759,73.3762,403.691,244.791,10.1159,356.099,198.418,226.872,401.396,197.221,60.5762,132.08,839.207,12.2371,156.166,650.479,-120.902,147.633,481.349,-248.581,185.901,312.254,-331.882,222.129,315.261,-163.331,200.13,194.882
179,0,130.347,445.981,1146.13,135.703,177.997,1133.59,-76.6761,348.999,1205.05,-66.2919,243.779,1196.81,106.799,505.832,868.622,128.212,470.425,672.649,80.5992,471.915,501.449,67.4536,403.944,244.721,3.9122,356.314,198.493,220.582,401.347,197.043,66.0705,133.208,839.44,19.8638,156.698,650.099,-116.146,147.758,483.532,-247.559,185.796,317.498,-330.313,222.324,323.429,-168.086,200.448,195.972
180,0,130.974,447.651,1146.04,136.458,179.745,1134.49,-75.9329,350.651,1205.42,-65.6227,245.352,1197.04,104.392,507.088,868.295,124.729,471.546,672.121,76.208,472.729,501.119,61.5277,404.173,244.629,-2.29167,356.505,198.542,214.294,401.292,196.839,71.6181,134.146,839.732,27.8564,157.139,649.776,-110.906,147.83,485.79,-245.944,185.693,322.869,-328.039,222.607,331.72,-172.422,200.695,197.299
181,0,131.459,449.299,1145.9,137.062,181.433,1135.35,-75.3305,352.279,1205.75,-65.107,246.919,1197.24,101.769,508.337,867.915,121.047,472.667,671.564,71.6847,473.51,500.77,55.5925,404.375,244.509,-8.50071,356.667,198.564,208.012,401.234,196.61,77.1676,134.88,840.085,36.1689,157.486,649.533,-105.209,147.851,488.113,-243.733,185.594,328.326,-325.079,222.979,340.048,-176.225,200.859,198.878
182,0,131.799,450.917,1145.7,137.507,183.051,1136.18,-74.8743,353.877,1206.05,-64.7505,248.476,1197.41,98.9656,509.569,867.484,117.187,473.778,670.979,67.0403,474.252,500.401,49.6447,404.544,244.36,-14.7164,356.797,198.563,201.738,401.176,196.359,82.6714,135.407,840.504,44.7532,157.743,649.391,-99.0812,147.826,490.492,-240.923,185.506,333.817,-321.46,223.438,348.318,-179.367,200.93,200.714
183,0,131.994,452.498,1145.44,137.789,184.59,1136.96,-74.5677,355.437,1206.31,-64.5566,250.017,1197.55,96.0154,510.773,867.008,113.172,474.869,670.369,62.2871,474.949,500.016,43.6837,404.678,244.183,-20.9373,356.894,198.543,195.477,401.118,196.091,88.086,135.729,840.994,53.5592,157.911,649.373,-92.553,147.761,492.913,-237.516,185.434,339.283,-317.215,223.976,356.418,-181.706,200.905,202.806
184,0,132.045,454.034,1145.12,137.905,186.041,1137.69,-74.4121,356.952,1206.52,-64.5262,251.537,1197.66,92.9547,511.936,866.497,109.023,475.93,669.741,57.4381,475.598,499.62,37.7101,404.777,243.984,-27.16,356.956,198.514,189.229,401.06,195.812,93.3729,135.855,841.56,62.5361,157.998,649.5,-85.6552,147.662,495.36,-233.511,185.384,344.657,-312.382,224.586,364.232,-183.094,200.784,205.139
185,0,131.954,455.517,1144.75,137.855,187.398,1138.37,-74.4068,358.417,1206.69,-64.6581,253.03,1197.74,89.8189,513.049,865.958,104.764,476.951,669.102,52.5063,476.194,499.217,31.726,404.84,243.77,-33.3798,356.985,198.484,182.997,401.002,195.527,98.4992,135.802,842.205,71.6323,158.01,649.792,-78.419,147.538,497.811,-228.911,185.362,349.866,-307.002,225.254,371.634,-183.381,200.575,207.688
186,0,131.727,456.942,1144.34,137.641,188.656,1139,-74.549,359.823,1206.82,-64.9489,254.489,1197.8,86.6417,514.101,865.404,100.416,477.922,668.461,47.5037,476.736,498.817,25.7337,404.868,243.552,-39.5915,356.981,198.464,176.78,400.943,195.242,103.437,135.592,842.938,80.7962,157.957,650.27,-70.875,147.396,500.243,-223.715,185.375,354.829,-301.116,225.966,378.492,-182.421,200.287,210.416
187,0,131.369,458.301,1143.88,137.266,189.811,1139.58,-74.834,361.167,1206.91,-65.393,255.91,1197.84,83.4534,515.082,864.846,95.9986,478.835,667.828,42.4414,477.222,498.426,19.7354,404.863,243.339,-45.79,356.948,198.465,170.576,400.883,194.962,108.165,135.253,843.762,89.9767,157.848,650.948,-63.0532,147.247,502.629,-217.926,185.426,359.463,-294.761,226.706,384.676,-180.079,199.936,213.277
188,0,130.886,459.588,1143.41,136.735,190.861,1140.13,-75.2551,362.444,1206.98,-65.9831,257.285,1197.87,80.2803,515.983,864.296,91.528,479.682,667.213,37.3284,477.652,498.056,13.7334,404.826,243.143,-51.9709,356.888,198.499,164.382,400.82,194.689,112.668,134.816,844.685,99.1227,157.696,651.839,-54.982,147.1,504.941,-211.54,185.518,363.681,-287.97,227.458,390.056,-176.241,199.541,216.217
189,0,130.285,460.797,1142.91,136.056,191.804,1140.64,-75.8039,363.651,1207.03,-66.71,258.609,1197.9,77.1437,516.797,863.767,87.0173,480.456,666.628,32.1718,478.026,497.714,7.72935,404.762,242.975,-58.131,356.807,198.576,158.197,400.755,194.426,116.934,134.312,845.713,108.184,157.513,652.951,-46.6877,146.963,507.147,-204.558,185.653,367.399,-280.768,228.204,394.51,-170.814,199.121,219.174
190,0,129.576,461.922,1142.4,135.237,192.639,1141.13,-76.4706,364.784,1207.06,-67.563,259.878,1197.94,74.0591,517.518,863.27,82.4762,481.155,666.084,26.9766,478.346,497.412,1.72436,404.675,242.846,-64.2681,356.709,198.705,152.016,400.686,194.175,120.959,133.775,846.852,117.113,157.312,654.29,-38.1944,146.844,509.215,-196.975,185.831,370.536,-273.169,228.93,397.925,-163.735,198.696,222.087
191,0,128.767,462.961,1141.9,134.289,193.369,1141.6,-77.2441,365.843,1207.1,-68.5303,261.087,1198,71.036,518.141,862.817,77.9105,481.773,665.592,21.7455,478.615,497.159,-4.28078,404.57,242.765,-70.3816,356.602,198.896,145.837,400.613,193.937,124.741,133.236,848.108,125.859,157.106,655.854,-29.5237,146.752,511.113,-188.785,186.05,373.015,-265.176,229.62,400.206,-154.971,198.284,224.89
192,0,127.868,463.907,1141.41,133.223,193.995,1142.06,-78.1122,366.826,1207.16,-69.5989,262.231,1198.1,68.0782,518.664,862.419,73.3223,482.311,665.163,16.4791,478.834,496.965,-10.2857,404.452,242.74,-76.4725,356.491,199.155,139.656,400.539,193.71,128.284,132.723,849.485,134.377,156.908,657.639,-20.6949,146.693,512.811,-179.981,186.306,374.77,-256.78,230.264,401.27,-144.526,197.902,227.525
193,0,126.887,464.758,1140.95,132.051,194.52,1142.53,-79.0621,367.734,1207.24,-70.7551,263.306,1198.24,65.1835,519.084,862.085,68.7109,482.769,664.807,11.1764,479.008,496.838,-16.2903,404.328,242.779,-82.5429,356.385,199.489,133.473,400.462,193.495,131.593,132.259,850.986,142.62,156.732,659.633,-11.7248,146.673,514.28,-170.554,186.594,375.746,-247.957,230.851,401.061,-132.433,197.562,229.938
194,0,125.836,465.512,1140.51,130.787,194.948,1143,-80.0803,368.567,1207.35,-71.9845,264.309,1198.43,62.3449,519.403,861.822,64.0728,483.148,664.531,5.83499,479.139,496.787,-22.2945,404.203,242.885,-88.596,356.29,199.902,127.285,400.386,193.291,134.675,131.863,852.611,150.544,156.588,661.822,-2.62806,146.696,515.494,-160.493,186.906,375.903,-238.673,231.376,399.544,-118.759,197.271,232.082
195,0,124.722,466.166,1140.11,129.446,195.284,1143.5,-81.1533,369.327,1207.52,-73.2726,265.237,1198.69,59.5513,519.622,861.637,59.4028,483.451,664.343,0.451464,479.231,496.818,-28.2987,404.085,243.062,-94.636,356.213,200.398,121.091,400.31,193.095,137.538,131.547,854.359,158.108,156.487,664.186,6.5823,146.766,516.433,-149.785,187.235,375.216,-228.881,231.832,396.71,-103.595,197.031,233.923
196,0,123.557,466.72,1139.76,128.042,195.531,1144.02,-82.2676,370.014,1207.75,-74.6046,266.086,1199.02,56.7883,519.744,861.535,54.6945,483.684,664.248,-4.97786,479.288,496.937,-34.303,403.978,243.312,-100.667,356.161,200.979,114.892,400.238,192.909,140.189,131.315,856.223,165.271,156.439,666.7,15.8946,146.884,517.081,-138.417,187.573,373.68,-218.525,232.219,392.579,-87.0571,196.842,235.438
197,0,122.348,467.174,1139.45,126.591,195.696,1144.58,-83.41,370.63,1208.05,-75.9655,266.854,1199.43,54.0401,519.775,861.517,49.9413,483.85,664.25,-10.4565,479.314,497.149,-40.308,403.887,243.637,-106.695,356.138,201.646,108.686,400.169,192.73,142.634,131.165,858.194,171.995,156.45,669.336,25.2978,147.053,517.43,-126.376,187.912,371.308,-207.545,232.534,387.195,-69.2757,196.698,236.619
198,0,121.104,467.528,1139.19,125.11,195.784,1145.17,-84.5679,371.176,1208.42,-77.3409,267.539,1199.92,51.29,519.718,861.586,45.1372,483.955,664.35,-15.9873,479.312,497.454,-46.3142,403.816,244.034,-112.724,356.147,202.4,102.475,400.106,192.559,144.875,131.089,860.259,178.247,156.527,672.063,34.781,147.271,517.476,-113.652,188.242,368.131,-195.876,232.778,380.634,-50.3919,196.592,237.469
199,0,119.835,467.785,1138.98,123.614,195.8,1145.81,-85.7292,371.651,1208.87,-78.7164,268.137,1200.5,48.522,519.581,861.739,40.2774,484.004,664.547,-21.5719,479.283,497.854,-52.3225,403.767,244.504,-118.759,356.19,203.24,96.2581,400.05,192.396,146.913,131.074,862.399,183.997,156.671,674.848,44.3325,147.538,517.226,-100.236,188.557,364.204,-183.457,232.952,372.995,-30.5515,196.518,238.005
200,0,118.547,467.946,1138.81,122.12,195.75,1146.48,-86.8829,372.057,1209.41,-80.0782,268.647,1201.15,45.7221,519.368,861.972,35.3592,484.004,664.84,-27.2103,479.231,498.349,-58.3342,403.742,245.044,-124.802,356.267,204.165,90.0341,400.001,192.24,148.746,131.099,864.592,189.222,156.886,677.657,53.9396,147.852,516.691,-86.1242,188.852,359.598,-170.233,233.057,364.402,-9.89927,196.468,238.258
201,0,117.248,468.016,1138.69,120.643,195.64,1147.19,-88.0187,372.391,1210.02,-81.4128,269.065,1201.89,42.8789,519.086,862.281,30.3825,483.958,665.224,-32.9009,479.157,498.934,-64.3506,403.737,245.652,-130.858,356.373,205.172,83.802,399.958,192.093,150.366,131.144,866.812,193.901,157.169,680.454,63.5873,148.211,515.89,-71.3221,189.122,354.402,-156.159,233.096,355.001,11.4245,196.442,238.266
202,0,115.947,467.998,1138.62,119.201,195.475,1147.94,-89.1273,372.652,1210.71,-82.7075,269.389,1202.7,39.985,518.742,862.659,25.3499,483.871,665.693,-38.6396,479.061,499.607,-70.3733,403.752,246.326,-136.928,356.503,206.258,77.5597,399.922,191.954,151.768,131.185,869.029,198.024,157.517,683.204,73.2583,148.611,514.848,-55.8434,189.366,348.719,-141.208,233.071,344.954,33.2868,196.442,238.079
203,0,114.65,467.898,1138.57,117.81,195.259,1148.72,-90.2003,372.838,1211.47,-83.9499,269.616,1203.58,37.0366,518.341,863.096,20.2671,483.745,666.238,-44.4205,478.944,500.361,-76.4042,403.781,247.062,-143.014,356.652,207.42,71.3048,399.89,191.824,152.941,131.196,871.211,201.585,157.927,685.875,82.932,149.05,513.598,-39.7141,189.586,342.665,-125.372,232.986,334.439,55.5624,196.475,237.75
204,0,113.366,467.721,1138.56,116.484,194.999,1149.52,-91.2303,372.943,1212.29,-85.1284,269.743,1204.51,34.0348,517.887,863.581,15.143,483.584,666.852,-50.2356,478.805,501.189,-82.4449,403.82,247.855,-149.116,356.809,208.651,65.0339,399.861,191.701,153.877,131.155,873.323,204.587,158.392,688.435,92.5841,149.523,512.174,-22.9751,189.785,336.365,-108.669,232.847,323.643,78.1339,196.555,237.336
205,0,112.101,467.472,1138.56,115.239,194.698,1150.33,-92.2108,372.965,1213.15,-86.2321,269.766,1205.49,30.9851,517.386,864.105,9.98926,483.389,667.523,-56.0749,478.644,502.083,-88.4969,403.86,248.703,-155.232,356.966,209.946,58.7436,399.833,191.587,154.569,131.041,875.332,207.043,158.905,690.855,102.186,150.028,510.616,-5.68416,189.969,329.947,-91.142,232.661,312.753,100.889,196.702,236.895
206,0,110.864,467.159,1138.58,114.091,194.361,1151.15,-93.1357,372.896,1214.06,-87.2504,269.683,1206.49,27.8972,516.841,864.653,4.82028,483.16,668.241,-61.9268,478.458,503.034,-94.5614,403.896,249.6,-161.363,357.111,211.299,52.4299,399.802,191.478,155.013,130.836,877.203,208.972,159.456,693.113,111.707,150.56,508.962,12.0823,190.15,323.542,-72.8665,232.438,301.96,123.719,196.938,236.477
207,0,109.663,466.788,1138.59,113.052,193.992,1151.95,-93.9997,372.732,1214.98,-88.1737,269.49,1207.5,24.7846,516.256,865.213,-0.347431,482.896,668.993,-67.7784,478.246,504.034,-100.639,403.92,250.54,-167.507,357.236,212.701,46.0893,399.765,191.373,155.21,130.529,878.907,210.403,160.039,695.186,121.108,151.118,507.254,30.2277,190.337,317.272,-53.9478,232.192,291.444,146.513,197.29,236.126
208,0,108.508,466.366,1138.6,112.137,193.595,1152.74,-94.798,372.466,1215.91,-88.9929,269.185,1208.51,21.6642,515.633,865.773,-5.49564,482.596,669.768,-73.6157,478.006,505.071,-106.729,403.925,251.519,-173.661,357.332,214.145,39.7183,399.72,191.271,155.166,130.112,880.415,211.373,160.643,697.059,130.35,151.697,505.529,48.6345,190.545,311.254,-34.523,231.937,281.375,169.155,197.782,235.876
209,0,107.409,465.899,1138.59,111.358,193.172,1153.49,-95.5258,372.092,1216.82,-89.6994,268.764,1209.5,18.5551,514.975,866.318,-10.605,482.259,670.555,-79.4243,477.736,506.137,-112.831,403.906,252.529,-179.824,357.392,215.624,33.3139,399.664,191.169,154.897,129.585,881.706,211.925,161.26,698.72,139.387,152.295,503.823,67.1651,190.789,305.591,-14.7587,231.694,271.903,191.522,198.44,235.745
210,0,106.375,465.394,1138.56,110.726,192.727,1154.2,-96.1786,371.603,1217.7,-90.2854,268.226,1210.45,15.4783,514.284,866.837,-15.6556,481.881,671.341,-85.1896,477.434,507.222,-118.944,403.857,253.563,-185.994,357.411,217.129,26.8739,399.596,191.064,154.426,128.955,882.765,212.109,161.883,700.162,148.172,152.911,502.167,85.6624,191.084,300.368,5.15079,231.483,263.158,213.48,199.282,235.736
211,0,105.42,464.857,1138.49,110.251,192.263,1154.85,-96.7518,370.995,1218.52,-90.7437,267.569,1211.34,12.4551,513.562,867.319,-20.6273,481.461,672.117,-90.8971,477.098,508.319,-125.066,403.777,254.617,-192.169,357.388,218.654,20.3965,399.515,190.955,153.784,128.236,883.582,211.981,162.505,701.38,156.653,153.543,500.586,103.952,191.445,295.65,24.9884,231.327,255.243,234.88,200.323,235.834
212,0,104.554,464.293,1138.38,109.945,191.78,1155.44,-97.2408,370.263,1219.28,-91.0678,266.792,1212.16,9.50696,512.811,867.754,-25.5005,480.996,672.873,-96.5328,476.726,509.419,-131.194,403.664,255.684,-198.349,357.321,220.192,13.881,399.419,190.838,153.014,127.446,884.157,211.599,163.118,702.375,164.779,154.188,499.098,121.848,191.888,291.481,44.5189,231.25,248.232,255.564,201.569,236.008
213,0,103.791,463.708,1138.23,109.813,191.28,1155.94,-97.6404,369.404,1219.95,-91.2519,265.896,1212.89,6.65409,512.033,868.133,-30.2563,480.483,673.6,-102.083,476.318,510.516,-137.326,403.519,256.758,-204.534,357.215,221.739,7.32667,399.31,190.713,152.163,126.611,884.496,211.023,163.719,703.152,172.495,154.847,497.714,139.152,192.423,287.881,63.4959,231.273,242.169,275.361,203.018,236.211
214,0,103.143,463.106,1138.03,109.864,190.765,1156.36,-97.9457,368.416,1220.52,-91.291,264.883,1213.52,3.91524,511.23,868.451,-34.8763,479.92,674.292,-107.535,475.872,511.605,-143.459,403.343,257.836,-210.723,357.075,223.291,0.733695,399.189,190.578,151.291,125.763,884.612,210.313,164.304,703.715,179.748,155.517,496.44,155.665,193.06,284.848,81.6689,231.418,237.066,294.096,204.658,236.386
215,0,102.625,462.49,1137.77,110.103,190.235,1156.69,-98.151,367.298,1220.97,-91.1808,263.755,1214.03,1.30704,510.403,868.702,-39.3434,479.306,674.942,-112.876,475.387,512.682,-149.593,403.142,258.915,-216.917,356.906,224.845,-5.89768,399.058,190.434,150.458,124.934,884.526,209.528,164.869,704.075,186.487,156.198,495.272,171.189,193.807,282.356,98.7919,231.7,232.903,311.588,206.47,236.466
216,0,102.248,461.862,1137.46,110.534,189.69,1156.91,-98.2506,366.054,1221.3,-90.918,262.515,1214.41,-1.15623,509.556,868.885,-43.6411,478.641,675.546,-118.095,474.863,513.744,-155.727,402.92,259.995,-223.116,356.717,226.403,-12.567,398.92,190.283,149.731,124.161,884.263,208.721,165.413,704.241,192.663,156.888,494.2,185.535,194.664,280.361,114.632,232.134,229.633,327.663,208.425,236.383
217,0,102.025,461.225,1137.09,111.158,189.13,1157.04,-98.2387,364.686,1221.49,-90.5002,261.169,1214.66,-3.4627,508.691,868.999,-47.7534,477.923,676.1,-123.179,474.3,514.789,-161.858,402.683,261.078,-229.323,356.515,227.966,-19.2737,398.778,190.125,149.177,123.48,883.852,207.942,165.934,704.224,198.233,157.587,493.21,198.529,195.631,278.802,128.976,232.726,227.182,342.159,210.489,236.073
218,0,101.969,460.579,1136.67,111.978,188.553,1157.07,-98.1095,363.2,1221.55,-89.9261,259.724,1214.78,-5.6027,507.811,869.044,-51.6643,477.155,676.601,-128.116,473.699,515.818,-167.989,402.436,262.166,-235.539,356.31,229.54,-26.0172,398.634,189.964,148.86,122.924,883.324,207.232,166.431,704.036,203.157,158.291,492.282,210.021,196.702,277.605,141.643,233.477,225.455,354.93,212.62,235.479
219,0,102.089,459.924,1136.2,112.992,187.96,1157,-97.8574,361.605,1221.46,-89.1954,258.187,1214.75,-7.56844,506.917,869.024,-55.3577,476.339,677.048,-132.894,473.061,516.83,-174.117,402.186,263.266,-241.765,356.107,231.129,-32.7964,398.491,189.805,148.838,122.523,882.71,206.624,166.903,703.687,207.406,158.998,491.394,219.887,197.865,276.689,152.486,234.381,224.341,365.861,214.777,234.561
220,0,102.395,459.26,1135.68,114.196,187.348,1156.83,-97.4772,359.91,1221.24,-88.309,256.566,1214.59,-9.35342,506.012,868.943,-58.8165,475.479,677.439,-137.498,472.389,517.827,-180.243,401.937,264.384,-248.002,355.913,232.743,-39.6098,398.351,189.652,149.159,122.298,882.04,206.143,167.349,703.19,210.956,159.704,490.521,228.038,199.108,275.97,161.401,235.426,223.719,374.869,216.913,233.297
221,0,102.894,458.584,1135.12,115.587,186.716,1156.57,-96.9644,358.126,1220.88,-87.2692,254.871,1214.3,-10.9518,505.099,868.805,-62.0222,474.579,677.771,-141.912,471.685,518.811,-186.365,401.694,265.53,-254.249,355.732,234.394,-46.4553,398.214,189.51,149.856,122.265,881.339,205.803,167.767,702.554,213.794,160.405,489.639,234.421,200.411,275.363,168.332,236.594,223.461,381.908,218.983,231.685
222,0,103.59,457.896,1134.52,117.157,186.061,1156.23,-96.3156,356.266,1220.39,-86.0794,253.112,1213.88,-12.3576,504.179,868.617,-64.9545,473.647,678.045,-146.118,470.953,519.783,-192.477,401.461,266.714,-260.506,355.566,236.093,-53.3293,398.082,189.384,150.949,122.426,880.628,205.607,168.155,701.789,215.916,161.095,488.724,239.025,201.754,274.793,173.269,237.86,223.446,386.979,220.948,229.747
223,0,104.484,457.192,1133.89,118.899,185.381,1155.82,-95.5284,354.345,1219.79,-84.7446,251.3,1213.34,-13.5642,503.254,868.385,-67.5907,472.69,678.258,-150.097,470.199,520.745,-198.573,401.238,267.947,-266.769,355.415,237.857,-60.2269,397.955,189.281,152.436,122.775,879.922,205.551,168.508,700.905,217.329,161.77,487.755,241.875,203.114,274.191,176.253,239.197,223.554,390.123,222.768,227.522
224,0,105.577,456.469,1133.25,120.802,184.674,1155.34,-94.6021,352.375,1219.08,-83.2711,249.444,1212.7,-14.5631,502.326,868.114,-69.9058,471.718,678.407,-153.825,469.429,521.7,-204.64,401.028,269.239,-273.03,355.28,239.704,-67.141,397.83,189.203,154.296,123.29,879.228,205.619,168.823,699.911,218.048,162.42,486.716,243.04,204.468,273.502,177.37,240.573,223.683,391.429,224.415,225.071
225,0,106.863,455.725,1132.59,122.854,183.938,1154.81,-93.5378,350.373,1218.28,-81.667,247.556,1211.97,-15.3441,501.396,867.809,-71.8719,470.743,678.489,-157.275,468.65,522.65,-210.662,400.83,270.602,-279.28,355.158,241.653,-74.063,397.707,189.155,156.487,123.943,878.548,205.788,169.095,698.815,218.098,163.041,485.593,242.62,205.79,272.685,176.747,241.955,223.744,391.021,225.866,222.464
226,0,108.335,454.956,1131.93,125.04,183.17,1154.24,-92.3385,348.354,1217.41,-79.9415,245.645,1211.16,-15.8943,500.466,867.477,-73.4586,469.777,678.503,-160.42,467.871,523.594,-216.616,400.644,272.048,-285.502,355.048,243.726,-80.9818,397.584,189.14,158.945,124.691,877.877,206.03,169.317,697.627,217.515,163.622,484.379,240.75,207.057,271.715,174.546,243.308,223.667,389.061,227.105,219.781
227,0,109.982,454.158,1131.28,127.345,182.368,1153.64,-91.0095,346.33,1216.48,-78.1057,243.722,1210.3,-16.1981,499.54,867.12,-74.6334,468.836,678.442,-163.227,467.105,524.535,-222.474,400.471,273.587,-291.676,354.947,245.948,-87.8848,397.457,189.158,161.594,125.487,877.203,206.307,169.483,696.354,216.34,164.158,483.072,237.587,208.247,270.58,170.955,244.601,223.405,385.735,228.13,217.101
228,0,111.791,453.329,1130.63,129.751,181.53,1153.03,-89.5584,344.317,1215.51,-76.1718,241.795,1209.4,-16.2373,498.619,866.742,-75.3618,467.935,678.304,-165.662,466.362,525.473,-228.201,400.31,275.229,-297.774,354.855,248.344,-94.7581,397.323,189.207,164.339,126.276,876.512,206.582,169.587,695.008,214.619,164.641,481.675,233.307,209.339,269.285,166.183,245.804,222.93,381.247,228.942,214.502
229,0,113.745,452.466,1130.01,132.241,180.654,1152.41,-87.995,342.325,1214.53,-74.1538,239.872,1208.48,-15.9915,497.707,866.345,-75.6085,467.091,678.083,-167.69,465.657,526.408,-233.757,400.163,276.985,-303.761,354.772,250.943,-101.587,397.18,189.286,167.079,127.002,875.789,206.813,169.622,693.596,212.404,165.062,480.195,228.097,210.319,267.845,160.442,246.894,222.233,375.809,229.553,212.05
230,0,115.823,451.566,1129.42,134.793,179.738,1151.8,-86.3317,340.366,1213.55,-72.0668,237.96,1207.56,-15.4383,496.808,865.932,-75.3377,466.32,677.776,-169.274,465.005,527.34,-239.096,400.031,278.865,-309.594,354.698,253.774,-108.357,397.022,189.387,169.713,127.612,875.018,206.958,169.581,692.131,209.75,165.417,478.645,222.144,211.173,266.284,153.948,247.849,221.325,369.631,229.981,209.8
231,0,118.005,450.627,1128.86,137.386,178.78,1151.21,-84.583,338.449,1212.58,-69.9272,236.065,1206.65,-14.5545,495.928,865.502,-74.5149,465.642,677.379,-170.376,464.42,528.268,-244.167,399.919,280.879,-315.222,354.635,256.867,-115.053,396.845,189.506,172.14,128.056,874.185,206.975,169.46,690.624,206.711,165.699,477.041,215.63,211.895,264.636,146.903,248.658,220.228,362.912,230.248,207.79
232,0,120.264,449.647,1128.35,140,177.781,1150.64,-82.7655,336.581,1211.64,-67.7525,234.192,1205.78,-13.3168,495.073,865.057,-73.1072,465.074,676.891,-170.959,463.921,529.195,-248.918,399.831,283.039,-320.585,354.588,260.254,-121.665,396.646,189.634,174.271,128.295,873.281,206.827,169.254,689.086,203.342,165.905,475.4,208.725,212.479,262.936,139.495,249.313,218.979,355.834,230.381,206.045
233,0,122.576,448.625,1127.87,142.611,176.739,1150.11,-80.8979,334.767,1210.75,-65.561,232.343,1204.96,-11.703,494.25,864.599,-71.085,464.632,676.309,-170.988,463.522,530.12,-253.293,399.774,285.358,-325.616,354.56,263.966,-128.182,396.418,189.762,176.029,128.298,872.303,206.478,168.958,687.531,199.693,166.032,473.742,201.584,212.928,261.222,131.889,249.813,217.62,348.554,230.407,204.573
234,0,124.913,447.56,1127.45,145.196,175.655,1149.62,-79.0001,333.009,1209.91,-63.3718,230.523,1204.21,-9.69324,493.467,864.127,-68.4228,464.331,675.635,-170.429,463.239,531.045,-257.237,399.756,287.849,-330.243,354.556,268.032,-134.596,396.158,189.885,177.36,128.051,871.253,205.898,168.572,685.972,195.813,166.078,472.087,194.336,213.246,259.53,124.221,250.165,216.197,341.202,230.353,203.368
235,0,127.247,446.452,1127.07,147.734,174.529,1149.18,-77.0933,331.309,1209.14,-61.2042,228.731,1203.52,-7.27109,492.732,863.645,-65.1009,464.186,674.872,-169.253,463.088,531.972,-260.696,399.784,290.528,-334.388,354.578,272.481,-140.901,395.859,189.997,178.229,127.55,870.141,205.061,168.095,684.421,191.744,166.044,470.456,187.091,213.442,257.895,116.601,250.378,214.756,333.879,230.245,202.412
236,0,129.551,445.302,1126.74,150.202,173.361,1148.78,-75.1994,329.667,1208.45,-59.078,226.97,1202.92,-4.42486,492.055,863.155,-61.1055,464.206,674.028,-167.434,463.08,532.906,-263.621,399.868,293.41,-337.97,354.63,277.337,-147.094,395.518,190.099,178.623,126.805,868.982,203.949,167.527,682.891,187.523,165.93,468.865,179.932,213.527,256.343,109.112,250.468,213.339,326.659,230.104,201.682
237,0,131.798,444.11,1126.46,152.578,172.152,1148.44,-73.3409,328.079,1207.83,-57.0126,225.239,1202.41,-1.14861,491.441,862.663,-56.4303,464.4,673.111,-164.952,463.227,533.851,-265.966,400.014,296.515,-340.911,354.71,282.62,-153.169,395.132,190.193,178.552,125.838,867.796,202.546,166.871,681.395,183.182,165.739,467.333,172.917,213.515,254.897,101.808,250.453,211.984,319.589,229.95,201.145
238,0,133.96,442.878,1126.22,154.843,170.906,1148.14,-71.5396,326.542,1207.29,-55.027,223.539,1202,2.55698,490.9,862.175,-51.0768,464.77,672.134,-161.794,463.536,534.814,-267.692,400.229,299.857,-343.133,354.816,288.344,-159.118,394.704,190.294,178.041,124.68,866.608,200.846,166.13,679.941,178.745,165.475,465.871,166.083,213.422,253.572,94.7177,250.353,210.721,312.692,229.796,200.768
239,0,136.012,441.608,1126.03,156.977,169.623,1147.89,-69.817,325.051,1206.83,-53.1395,221.869,1201.68,6.68388,490.437,861.7,-45.0548,465.316,671.112,-157.952,464.01,535.801,-268.767,400.518,303.454,-344.568,354.942,294.513,-164.926,394.235,190.419,177.134,123.368,865.441,198.845,165.309,678.541,174.233,165.14,464.491,159.448,213.261,252.377,87.852,250.189,209.572,305.974,229.652,200.519
240,0,137.932,440.303,1125.87,158.963,168.307,1147.69,-68.1932,323.602,1206.44,-51.3675,220.228,1201.45,11.2163,490.057,861.247,-38.3825,466.034,670.066,-153.427,464.651,536.822,-269.165,400.882,307.319,-345.157,355.077,301.121,-170.572,393.735,190.597,175.881,121.942,864.32,196.547,164.414,677.201,169.657,164.741,463.2,153.012,213.048,251.315,81.2035,249.98,208.549,299.426,229.522,200.363
241,0,139.699,438.967,1125.75,160.785,166.961,1147.53,-66.687,322.188,1206.13,-49.7268,218.617,1201.31,16.1307,489.762,860.827,-31.0865,466.915,669.016,-148.225,465.453,537.886,-268.87,401.321,311.459,-344.854,355.21,308.152,-176.021,393.218,190.865,174.338,120.442,863.266,193.957,163.45,675.928,165.029,164.283,462.002,146.762,212.796,250.382,74.7528,249.746,207.657,293.03,229.407,200.273
242,0,141.294,437.602,1125.66,162.43,165.588,1147.41,-65.315,320.804,1205.87,-48.2317,217.036,1201.26,21.3956,489.552,860.455,-23.2014,467.944,667.987,-142.362,466.408,539.003,-267.872,401.83,315.879,-343.632,355.324,315.574,-181.22,392.706,191.266,172.56,118.904,862.296,191.087,162.424,674.727,160.351,163.769,460.9,140.677,212.518,249.57,68.4723,249.503,206.896,286.76,229.306,200.223
243,0,142.701,436.213,1125.6,163.887,164.192,1147.31,-64.0915,319.446,1205.68,-46.8947,215.485,1201.29,26.9723,489.425,860.144,-14.7694,469.105,667.006,-135.861,467.503,540.182,-266.17,402.401,320.572,-341.479,355.403,323.341,-186.101,392.226,191.85,170.595,117.359,861.42,187.951,161.345,673.599,155.626,163.206,459.89,134.729,212.224,248.868,62.3302,249.264,206.257,280.591,229.213,200.192
244,0,143.91,434.804,1125.55,165.147,162.778,1147.25,-63.0282,318.107,1205.54,-45.7263,213.965,1201.39,32.8155,489.376,859.908,-5.83945,470.376,666.102,-128.752,468.723,541.433,-263.768,403.026,325.525,-338.405,355.432,331.392,-190.577,391.812,192.668,168.488,115.831,860.644,184.563,160.218,672.545,150.851,162.599,458.972,128.889,211.922,248.262,56.2932,249.039,205.726,274.496,229.123,200.164
245,0,144.909,433.381,1125.52,166.203,161.35,1147.2,-62.134,316.786,1205.43,-44.7347,212.477,1201.55,38.8744,489.399,859.761,3.53351,471.734,665.303,-121.07,470.045,542.764,-260.675,403.69,330.711,-334.437,355.394,339.648,-194.536,391.503,193.773,166.268,114.339,859.967,180.942,159.052,671.566,146.024,161.954,458.138,123.126,211.618,247.738,50.3297,248.836,205.29,268.453,229.027,200.126
246,0,145.694,431.948,1125.49,167.051,159.913,1147.16,-61.415,315.479,1205.37,-43.9256,211.024,1201.76,45.0939,489.484,859.718,13.2897,473.151,664.638,-112.86,471.447,544.181,-256.907,404.382,336.093,-329.623,355.278,348.016,-197.854,391.342,195.208,163.957,112.89,859.382,177.106,157.855,670.658,141.139,161.276,457.384,117.411,211.318,247.282,44.4114,248.659,204.932,262.442,228.921,200.068
247,0,146.26,430.511,1125.47,167.691,158.472,1147.14,-60.8744,314.186,1205.33,-43.3027,209.608,1202,51.4155,489.62,859.789,23.3657,474.599,664.135,-104.17,472.903,545.689,-252.482,405.086,341.622,-324.025,355.077,356.387,-200.388,391.375,197.011,161.567,111.49,858.878,173.072,156.634,669.82,136.192,160.57,456.702,111.719,211.024,246.881,38.5144,248.51,204.634,256.449,228.796,199.986
248,0,146.608,429.075,1125.44,168.123,157.033,1147.12,-60.5124,312.908,1205.31,-42.8669,208.232,1202.29,57.7796,489.795,859.987,33.6951,476.05,663.821,-95.0511,474.384,547.288,-247.421,405.791,347.236,-317.719,354.79,364.639,-201.984,391.641,199.202,159.1,110.138,858.442,168.86,155.397,669.046,131.177,159.841,456.086,106.029,210.738,246.523,32.6202,248.388,204.381,250.463,228.65,199.874
249,0,146.741,427.645,1125.41,168.35,155.601,1147.09,-60.3267,311.645,1205.31,-42.6172,206.9,1202.59,64.1264,489.995,860.317,44.2102,477.476,663.718,-85.56,475.863,548.976,-241.746,406.483,352.861,-310.788,354.423,372.64,-202.488,392.179,201.785,156.553,108.831,858.058,164.485,154.153,668.334,126.09,159.096,455.527,100.323,210.462,246.198,26.7154,248.292,204.161,244.478,228.478,199.732
250,0,146.663,426.228,1125.38,168.377,154.182,1147.07,-60.3123,310.403,1205.33,-42.5499,205.614,1202.9,70.3976,490.208,860.785,54.8427,478.847,663.846,-75.7547,477.31,550.748,-235.48,407.154,358.413,-303.321,353.991,380.253,-201.747,393.014,204.743,153.919,107.563,857.709,159.964,152.909,667.68,120.925,158.34,455.021,94.5899,210.196,245.9,20.7918,248.218,203.961,238.49,228.279,199.562
251,0,146.382,424.83,1125.33,168.211,152.781,1147.03,-60.4622,309.184,1205.35,-42.6596,204.379,1203.22,76.5381,490.421,861.393,65.5249,480.138,664.223,-65.6944,478.698,552.593,-228.646,407.799,363.801,-295.405,353.514,387.336,-199.62,394.162,208.035,151.19,106.332,857.381,155.312,151.673,667.077,115.68,157.58,454.561,88.8204,209.941,245.624,14.8452,248.162,203.773,232.497,228.053,199.364
252,0,145.907,423.455,1125.26,167.861,151.404,1146.97,-60.7675,307.995,1205.39,-42.939,203.199,1203.54,82.4971,490.62,862.139,76.1904,481.327,664.858,-55.4384,480.002,554.498,-221.266,408.416,368.928,-287.12,353.022,393.75,-195.988,395.619,211.601,148.359,105.136,857.059,150.54,150.454,666.524,110.353,156.821,454.143,83.0097,209.697,245.367,8.87505,248.121,203.592,226.5,227.802,199.144
253,0,145.249,422.109,1125.18,167.336,150.055,1146.91,-61.2176,306.841,1205.43,-43.3791,202.077,1203.85,88.2293,490.795,863.019,86.7752,482.39,665.758,-45.045,481.198,556.443,-213.363,409.006,373.693,-278.538,352.549,399.361,-190.758,397.369,215.359,145.421,103.977,856.733,145.661,149.259,666.015,104.942,156.07,453.762,77.1556,209.466,245.129,2.88313,248.089,203.415,220.498,227.529,198.903
254,0,144.42,420.798,1125.08,166.647,148.742,1146.82,-61.801,305.731,1205.49,-43.9695,201.016,1204.16,93.6961,490.936,864.026,97.2178,483.312,666.923,-34.5705,482.268,558.408,-204.955,409.577,377.996,-269.717,352.132,404.048,-183.869,399.376,219.213,142.375,102.858,856.393,140.685,148.097,665.547,99.4474,155.334,453.417,71.2581,209.247,244.91,-3.12716,248.062,203.242,214.491,227.239,198.649
255,0,143.433,419.527,1124.97,165.806,147.467,1146.72,-62.5051,304.671,1205.56,-44.6989,200.021,1204.44,98.8658,491.036,865.148,107.461,484.079,668.347,-24.0688,483.194,560.367,-196.064,410.135,381.743,-260.7,351.812,407.703,-175.301,401.588,223.054,139.223,101.788,856.033,135.621,146.974,665.117,93.8712,154.618,453.103,65.3189,209.041,244.71,-9.1518,248.037,203.073,208.48,226.935,198.385
256,0,142.3,418.3,1124.84,164.825,146.238,1146.6,-63.3173,303.669,1205.64,-45.5553,199.093,1204.71,103.714,491.089,866.373,117.449,484.679,670.019,-13.5899,483.965,562.293,-186.706,410.693,384.845,-251.512,351.626,410.237,-165.067,403.941,226.771,135.97,100.777,855.65,130.475,145.899,664.722,88.2158,153.931,452.819,59.3406,208.849,244.533,-15.1869,248.01,202.91,202.464,226.624,198.117
257,0,141.037,417.123,1124.68,163.716,145.057,1146.46,-64.2244,302.73,1205.75,-46.526,198.236,1204.96,108.226,491.09,867.687,127.134,485.107,671.922,-3.18012,484.575,564.154,-176.9,411.26,387.226,-242.16,351.607,411.583,-153.224,406.363,230.252,132.623,99.8346,855.241,125.256,144.877,664.359,82.4852,153.277,452.565,53.3263,208.671,244.378,-21.2292,247.977,202.758,196.441,226.31,197.85
258,0,139.656,416,1124.51,162.491,143.929,1146.29,-65.2138,301.863,1205.87,-47.5984,197.451,1205.19,112.391,491.039,869.073,136.469,485.36,674.034,7.11892,485.019,565.921,-166.662,411.849,388.821,-232.638,351.783,411.696,-139.86,408.78,233.396,129.191,98.9725,854.809,119.971,143.915,664.027,76.6842,152.661,452.339,47.2793,208.507,244.247,-27.2765,247.937,202.62,190.408,225.998,197.586
259,0,138.171,414.933,1124.32,161.164,142.858,1146.1,-66.2731,301.073,1206.01,-48.76,196.74,1205.4,116.208,490.936,870.515,145.414,485.437,676.326,17.2702,485.298,567.561,-156.006,412.467,389.584,-222.922,352.168,410.559,-125.095,411.119,236.116,125.681,98.2003,854.356,114.625,143.018,663.722,70.8191,152.09,452.14,41.2028,208.358,244.14,-33.3281,247.886,202.499,184.363,225.694,197.329
260,0,136.595,413.928,1124.1,159.744,141.848,1145.89,-67.3908,300.363,1206.17,-49.9984,196.103,1205.6,119.682,490.783,871.995,153.931,485.342,678.769,27.2414,485.417,569.044,-144.948,413.121,389.485,-212.98,352.77,408.175,-109.071,413.318,238.345,122.102,97.5254,853.886,109.226,142.191,663.443,64.8968,151.567,451.967,35.0995,208.223,244.057,-39.3844,247.823,202.398,178.304,225.4,197.081
261,0,134.939,412.986,1123.86,158.245,140.901,1145.66,-68.5561,299.739,1206.35,-51.3021,195.542,1205.77,122.824,490.585,873.497,161.988,485.081,681.325,37.0052,485.382,570.339,-133.501,413.81,388.514,-202.771,353.581,404.576,-91.9499,415.325,240.038,118.458,96.9518,853.405,103.78,141.436,663.186,58.925,151.095,451.818,28.9719,208.1,243.998,-45.4471,247.748,202.321,172.228,225.12,196.843
262,0,133.215,412.11,1123.6,156.676,140.02,1145.39,-69.7591,299.202,1206.56,-52.6601,195.055,1205.92,125.649,490.346,875.004,169.559,484.662,683.959,46.5386,485.202,571.42,-121.679,414.533,386.679,-192.247,354.583,399.814,-73.8994,417.105,241.177,114.754,96.4801,852.92,98.2976,140.757,662.95,52.9124,150.676,451.693,22.8218,207.99,243.959,-51.519,247.661,202.269,166.132,224.856,196.615
263,0,131.434,411.302,1123.31,155.048,139.207,1145.11,-70.9908,298.754,1206.78,-54.0622,194.644,1206.06,128.175,490.074,876.501,176.62,484.094,686.629,55.8228,484.888,572.262,-109.493,415.28,384.011,-181.361,355.745,393.962,-55.0901,418.639,241.767,110.992,96.107,852.438,92.786,140.154,662.731,46.8679,150.312,451.589,16.651,207.892,243.939,-57.6034,247.563,202.242,160.014,224.61,196.395
264,0,129.605,410.563,1123,153.37,138.463,1144.79,-72.2433,298.396,1207.03,-55.4993,194.308,1206.17,130.424,489.776,877.974,183.152,483.388,689.295,64.8431,484.452,572.844,-96.955,416.038,380.553,-170.068,357.028,387.113,-35.6874,419.925,241.84,107.171,95.8259,851.965,87.2558,139.628,662.527,40.8012,150.003,451.505,10.4604,207.804,243.936,-63.7041,247.456,202.242,153.871,224.382,196.184
265,0,127.737,409.895,1122.66,151.65,137.788,1144.44,-73.5095,298.127,1207.28,-56.9632,194.045,1206.27,132.419,489.46,879.41,189.142,482.556,691.917,73.5877,483.903,573.152,-84.0763,416.788,376.37,-158.327,358.383,379.373,-15.846,420.971,241.447,103.294,95.6273,851.509,81.7181,139.177,662.336,34.7221,149.749,451.438,4.25087,207.726,243.946,-69.8251,247.343,202.269,147.703,224.171,195.98
266,0,125.839,409.296,1122.29,149.896,137.183,1144.07,-74.7832,297.945,1207.55,-58.4465,193.856,1206.35,134.181,489.136,880.796,194.58,481.611,694.455,82.0478,483.254,573.172,-70.8678,417.509,371.537,-146.104,359.758,370.862,4.29398,421.795,240.657,99.3618,95.5002,851.076,76.185,138.8,662.154,28.6407,149.546,451.387,-1.97692,207.657,243.968,-75.9699,247.227,202.322,141.508,223.976,195.781
267,0,123.917,408.767,1121.89,148.117,136.648,1143.66,-76.0588,297.85,1207.82,-59.9427,193.74,1206.41,135.733,488.811,882.122,199.461,480.564,696.871,90.2162,482.513,572.899,-57.3413,418.173,366.143,-133.375,361.101,361.706,24.6101,422.421,239.552,95.3776,95.4326,850.668,70.6696,138.494,661.979,22.5672,149.393,451.349,-8.22252,207.596,243.999,-82.1417,247.112,202.401,135.284,223.795,195.587
268,0,121.978,408.307,1121.46,146.319,136.181,1143.22,-77.3314,297.837,1208.1,-61.4462,193.697,1206.45,137.096,488.495,883.377,203.782,479.428,699.13,98.0876,481.688,572.332,-43.5098,418.756,360.284,-120.127,362.359,352.04,44.9985,422.869,238.223,91.3484,95.4133,850.289,65.1856,138.256,661.808,16.5116,149.286,451.323,-14.4854,207.544,244.037,-88.3427,247.002,202.506,129.031,223.626,195.397
269,0,120.029,407.913,1120.99,144.507,135.78,1142.75,-78.5963,297.906,1208.37,-62.9517,193.725,1206.47,138.286,488.193,884.552,207.548,478.214,701.199,105.657,480.786,571.475,-29.389,419.229,354.063,-106.357,363.483,341.999,65.3734,423.153,236.762,87.2849,95.432,849.938,59.7472,138.08,661.639,10.4837,149.22,451.307,-20.765,207.501,244.083,-94.5744,246.901,202.639,122.746,223.466,195.21
270,0,118.076,407.584,1120.49,142.69,135.444,1142.25,-79.8492,298.052,1208.62,-64.4548,193.825,1206.46,139.319,487.914,885.638,210.765,476.934,703.052,112.919,479.81,570.336,-14.9983,419.565,347.586,-92.077,364.433,331.718,85.6657,423.278,235.259,83.2021,95.4809,849.613,54.3689,137.962,661.47,4.49319,149.191,451.301,-27.0603,207.465,244.136,-100.837,246.812,202.8,116.43,223.312,195.027
271,0,116.124,407.317,1119.97,140.873,135.169,1141.71,-81.0858,298.273,1208.86,-65.9511,193.997,1206.43,140.207,487.662,886.626,213.444,475.596,704.664,119.869,478.764,568.929,-0.362647,419.74,340.958,-77.3106,365.173,321.331,105.82,423.237,233.799,79.1192,95.5544,849.311,49.0649,137.896,661.3,-1.45103,149.193,451.303,-33.3702,207.438,244.197,-107.131,246.739,202.992,110.081,223.162,194.847
272,0,114.179,407.109,1119.41,139.062,134.953,1141.15,-82.3017,298.567,1209.08,-67.4365,194.241,1206.38,140.957,487.44,887.509,215.598,474.211,706.018,126.5,477.647,567.272,14.4859,419.73,334.281,-62.0965,365.676,310.965,125.79,423.013,232.454,75.0593,95.6498,849.027,43.849,137.876,661.129,-7.34052,149.219,451.314,-39.6931,207.418,244.269,-113.454,246.683,203.219,103.698,223.013,194.672
273,0,112.248,406.955,1118.82,137.263,134.792,1140.55,-83.4923,298.932,1209.26,-68.9067,194.558,1206.31,141.573,487.251,888.277,217.245,472.785,707.1,132.805,476.461,565.384,29.5068,419.516,327.653,-46.4876,365.926,300.74,145.537,422.575,231.285,71.048,95.7665,848.753,38.7341,137.896,660.956,-13.1676,149.263,451.335,-46.0269,207.405,244.354,-119.805,246.643,203.484,97.2803,222.864,194.5
274,0,110.337,406.854,1118.2,135.485,134.682,1139.93,-84.6527,299.365,1209.42,-70.3572,194.946,1206.2,142.058,487.094,888.924,218.407,471.326,707.902,138.773,475.203,563.291,44.6491,419.084,321.162,-30.5518,365.91,290.768,165.023,421.887,230.335,67.1126,95.9064,848.486,33.7319,137.951,660.781,-18.9255,149.32,451.367,-52.369,207.396,244.456,-126.179,246.618,203.793,90.8291,222.712,194.333
275,0,108.452,406.799,1117.56,133.733,134.62,1139.29,-85.7775,299.864,1209.53,-71.7832,195.407,1206.07,142.408,486.966,889.441,219.106,469.84,708.423,144.394,473.87,561.017,59.8501,418.421,314.89,-14.3725,365.625,281.152,184.205,420.909,229.631,63.2802,96.0725,848.218,28.8529,138.033,660.607,-24.6082,149.381,451.413,-58.7165,207.388,244.58,-132.575,246.605,204.151,84.344,222.556,194.17
276,0,106.602,406.788,1116.9,132.015,134.601,1138.63,-86.8609,300.429,1209.61,-73.1795,195.939,1205.91,142.621,486.863,889.82,219.369,468.332,708.664,149.655,472.462,558.59,75.0349,417.521,308.904,1.9519,365.071,271.984,203.036,419.603,229.183,59.5764,96.2686,847.947,24.1054,138.137,660.436,-30.211,149.442,451.475,-65.0662,207.378,244.731,-138.987,246.598,204.566,77.8262,222.397,194.009
277,0,104.793,406.816,1116.23,130.34,134.62,1137.95,-87.8965,301.058,1209.64,-74.5399,196.544,1205.73,142.69,486.779,890.055,219.225,466.807,708.632,154.539,470.974,556.038,90.1151,416.381,303.262,18.3076,364.253,263.341,221.455,417.937,228.982,56.0237,96.4984,847.67,19.4966,138.259,660.269,-35.73,149.496,451.556,-71.4145,207.362,244.913,-145.412,246.589,205.043,71.2771,222.233,193.85
278,0,103.035,406.879,1115.55,128.716,134.675,1137.26,-88.8776,301.749,1209.63,-75.858,197.218,1205.52,142.61,486.706,890.141,218.706,465.269,708.341,159.032,469.405,553.388,104.989,415.002,298.008,34.5667,363.177,255.29,239.389,415.891,229.002,52.6405,96.765,847.387,15.0313,138.393,660.11,-41.1625,149.538,451.66,-77.7579,207.334,245.133,-151.847,246.572,205.589,64.6985,222.064,193.691
279,0,101.336,406.973,1114.86,127.152,134.761,1136.57,-89.7971,302.5,1209.57,-77.1263,197.961,1205.28,142.375,486.635,890.071,217.842,463.721,707.805,163.116,467.754,550.669,119.544,413.39,293.171,50.5879,361.851,247.883,256.753,413.46,229.205,49.4396,97.0703,847.099,10.7129,138.535,659.962,-46.5068,149.564,451.79,-84.0931,207.288,245.396,-158.286,246.536,206.21,58.0927,221.892,193.53
280,0,99.7056,407.095,1114.17,125.658,134.875,1135.88,-90.6472,303.31,1209.47,-78.3369,198.771,1205.01,141.98,486.555,889.843,216.669,462.168,707.043,166.773,466.021,547.906,133.654,411.552,288.768,66.2191,360.282,241.156,273.443,410.656,229.539,46.4285,97.4145,846.81,6.54313,138.682,659.829,-51.762,149.569,451.952,-90.4168,207.218,245.707,-164.727,246.471,206.914,51.462,221.716,193.364
281,0,98.154,407.24,1113.48,124.243,135.013,1135.2,-91.4204,304.176,1209.31,-79.4811,199.642,1204.73,141.423,486.457,889.455,215.221,460.612,706.08,169.986,464.209,545.124,147.187,409.502,284.804,81.2998,358.48,235.132,289.344,407.511,229.942,43.6087,97.7959,846.526,2.52272,138.833,659.714,-56.9279,149.553,452.148,-96.7267,207.118,246.072,-171.167,246.367,207.706,44.8089,221.536,193.193
282,0,96.6912,407.408,1112.81,122.919,135.173,1134.53,-92.1087,305.095,1209.12,-80.5498,200.571,1204.42,140.703,486.33,888.908,213.534,459.058,704.937,172.739,462.32,542.346,160.005,407.254,281.269,95.6647,356.451,229.817,304.33,404.073,230.347,40.9765,98.2111,846.251,-1.34853,138.986,659.619,-62.0049,149.512,452.382,-103.021,206.982,246.495,-177.604,246.216,208.59,38.1357,221.353,193.014
283,0,95.3276,407.595,1112.16,121.694,135.352,1133.87,-92.7045,306.062,1208.88,-81.5332,201.553,1204.08,139.825,486.166,888.206,211.643,457.511,703.641,175.017,460.361,539.592,171.968,404.826,278.144,109.148,354.207,225.204,318.268,400.406,230.684,38.5235,98.6552,845.993,-5.07099,139.141,659.546,-66.9938,149.449,452.658,-109.298,206.806,246.982,-184.038,246.01,209.571,31.4442,221.166,192.828
284,0,94.0733,407.799,1111.53,120.58,135.55,1133.24,-93.2002,307.073,1208.6,-82.4217,202.581,1203.73,138.796,485.957,887.353,209.584,455.975,702.219,176.81,458.339,536.882,182.94,402.239,275.4,121.588,351.758,221.267,331.022,396.588,230.888,36.2384,99.1219,845.758,-8.64469,139.3,659.498,-71.8949,149.364,452.978,-115.557,206.587,247.537,-190.468,245.742,210.652,24.7361,220.974,192.636
285,0,92.9384,408.021,1110.93,119.586,135.765,1132.64,-93.5889,308.122,1208.29,-83.2054,203.648,1203.37,137.627,485.699,886.359,207.391,454.457,700.698,178.108,456.265,534.229,192.794,399.516,273.001,132.835,349.118,217.971,342.462,392.702,230.898,34.1075,99.6045,845.55,-12.0687,139.465,659.474,-76.7084,149.261,453.344,-121.799,206.323,248.163,-196.895,245.41,211.836,18.0126,220.776,192.438
286,0,91.9324,408.259,1110.37,118.722,135.997,1132.08,-93.8644,309.202,1207.94,-83.8747,204.745,1202.98,136.334,485.389,885.233,205.097,452.962,699.103,178.91,454.153,531.65,201.413,396.682,270.903,142.751,346.305,215.265,352.469,388.84,230.664,32.1172,100.096,845.373,-15.3403,139.639,659.475,-81.4334,149.144,453.759,-128.025,206.015,248.863,-203.321,245.012,213.125,11.2744,220.571,192.237
287,0,91.064,408.514,1109.84,117.995,136.248,1131.55,-94.021,310.305,1207.56,-84.4205,205.864,1202.59,134.936,485.027,883.991,202.733,451.497,697.459,179.216,452.017,529.153,208.704,393.767,269.061,151.223,343.344,213.089,360.942,385.089,230.15,30.2549,100.59,845.23,-18.4547,139.826,659.497,-86.0677,149.019,454.224,-134.236,205.664,249.641,-209.747,244.552,214.52,4.52221,220.356,192.038
288,0,90.3412,408.788,1109.36,117.415,136.517,1131.07,-94.0544,311.425,1207.15,-84.8344,206.995,1202.19,133.456,484.616,882.648,200.329,450.07,695.79,179.035,449.876,526.749,214.591,390.8,267.428,158.162,340.262,211.376,367.805,381.531,229.336,28.5111,101.081,845.119,-21.4042,140.029,659.538,-90.6073,148.893,454.738,-140.432,205.276,250.499,-216.176,244.035,216.024,-2.24336,220.129,191.844
289,0,89.7705,409.083,1108.92,116.986,136.807,1130.63,-93.9614,312.552,1206.72,-85.1088,208.129,1201.78,131.919,484.164,881.222,197.909,448.688,694.118,178.379,447.749,524.444,219.029,387.813,265.956,163.511,337.097,210.052,373.013,378.241,228.221,26.88,101.565,845.037,-24.1778,140.254,659.592,-95.0461,148.772,455.301,-146.614,204.857,251.439,-222.611,243.469,217.639,-9.02149,219.89,191.661
290,0,89.3572,409.401,1108.53,116.715,137.122,1130.24,-93.74,313.678,1206.28,-85.2378,209.256,1201.36,130.352,483.68,879.734,195.497,447.361,692.461,177.269,445.657,522.244,222.002,384.841,264.603,167.247,333.888,209.042,376.556,375.275,226.818,25.3615,102.04,844.981,-26.7608,140.505,659.654,-99.3753,148.663,455.913,-152.781,204.414,252.464,-229.052,242.866,219.367,-15.811,219.635,191.494
291,0,89.1051,409.745,1108.2,116.605,137.463,1129.91,-93.3898,314.794,1205.83,-85.2166,210.368,1200.94,128.782,483.176,878.203,193.113,446.096,690.838,175.729,443.622,520.153,223.525,381.918,263.328,169.381,330.682,208.272,378.463,372.679,225.16,23.9611,102.507,844.942,-29.1347,140.785,659.716,-103.583,148.574,456.573,-158.93,203.958,253.577,-235.499,242.238,221.213,-22.6101,219.367,191.346
292,0,89.0158,410.12,1107.92,116.657,137.835,1129.62,-92.9119,315.894,1205.37,-85.0424,211.457,1200.53,127.236,482.666,876.651,190.77,444.902,689.261,173.792,441.668,518.172,223.644,379.08,262.1,169.963,327.529,207.671,378.801,370.477,223.291,22.691,102.967,844.913,-31.2769,141.096,659.769,-107.655,148.51,457.279,-165.055,203.498,254.782,-241.948,241.6,223.184,-29.4166,219.084,191.22
293,0,89.0893,410.529,1107.7,116.871,138.242,1129.4,-92.3088,316.969,1204.91,-84.7142,212.514,1200.12,125.739,482.166,875.1,188.48,443.788,687.743,171.491,439.816,516.302,222.437,376.36,260.892,169.075,324.48,207.175,377.673,368.675,221.265,21.5699,103.425,844.882,-33.1612,141.439,659.804,-111.571,148.476,458.029,-171.15,203.044,256.082,-248.393,240.967,225.288,-36.2276,218.791,191.119
294,0,89.3236,410.977,1107.53,117.245,138.688,1129.23,-91.5848,318.013,1204.46,-84.2331,213.534,1199.71,124.316,481.691,873.571,186.251,442.759,686.292,168.868,438.088,514.545,220.006,373.791,259.686,166.829,321.586,206.731,375.215,367.265,219.14,20.6225,103.886,844.841,-34.758,141.814,659.81,-115.31,148.476,458.822,-177.201,202.607,257.482,-254.822,240.354,227.538,-43.04,218.491,191.042
295,0,89.7143,411.469,1107.41,117.774,139.178,1129.11,-90.7457,319.023,1204.02,-83.6025,214.511,1199.31,122.985,481.259,872.083,184.086,441.825,684.915,165.963,436.504,512.898,216.476,371.403,258.471,163.363,318.893,206.295,371.588,366.218,216.978,19.879,104.359,844.779,-36.0346,142.216,659.778,-118.847,148.51,459.657,-183.192,202.194,258.991,-261.221,239.774,229.947,-49.8505,218.192,190.988
296,0,90.2549,412.008,1107.36,118.453,139.715,1129.05,-89.7988,319.994,1203.6,-82.8281,215.444,1198.93,121.762,480.883,870.656,181.982,440.989,683.616,162.819,435.081,511.36,211.991,369.22,257.243,158.834,316.443,205.834,366.971,365.497,214.835,19.3741,104.849,844.685,-36.9562,142.642,659.697,-122.152,148.577,460.533,-189.103,201.811,260.615,-267.565,239.239,232.534,-56.6564,217.901,190.951
297,0,90.937,412.6,1107.35,119.272,140.305,1129.05,-88.753,320.926,1203.2,-81.918,216.33,1198.55,120.658,480.579,869.305,179.935,440.258,682.396,159.481,433.833,509.93,206.703,367.26,256.006,153.412,314.265,205.328,361.552,365.052,212.76,19.1452,105.365,844.55,-37.4865,143.082,659.556,-125.194,148.672,461.448,-194.909,201.462,262.365,-273.826,238.758,235.32,-63.4553,217.629,190.926
298,0,91.7498,413.248,1107.4,120.22,140.951,1129.09,-87.6185,321.818,1202.83,-80.8824,217.169,1198.19,119.679,480.357,868.044,177.935,439.635,681.256,155.988,432.771,508.603,200.769,365.538,254.767,147.269,312.381,204.767,355.516,364.829,210.794,19.2316,105.914,844.367,-37.589,143.526,659.347,-127.937,148.789,462.402,-200.578,201.148,264.252,-279.967,238.335,238.329,-70.2457,217.387,190.905
299,0,92.6806,413.956,1107.5,121.286,141.657,1129.19,-86.4068,322.673,1202.5,-79.7339,217.965,1197.85,118.825,480.226,866.884,175.972,439.122,680.194,152.378,431.901,507.376,194.34,364.057,253.537,140.576,310.8,204.153,349.04,364.771,208.967,19.6715,106.501,844.13,-37.2276,143.962,659.062,-130.346,148.916,463.397,-206.075,200.865,266.29,-285.947,237.973,241.59,-77.0269,217.187,190.881
300,0,93.7149,414.725,1107.65,122.454,142.424,1129.34,-85.1305,323.494,1202.2,-78.4872,218.721,1197.53,118.092,480.192,865.834,174.031,438.719,679.205,148.687,431.225,506.245,187.563,362.818,252.332,133.492,309.518,203.491,342.282,364.824,207.299,20.5013,107.128,843.835,-36.3683,144.374,658.694,-132.381,149.041,464.433,-211.362,200.609,268.492,-291.715,237.67,245.129,-83.7988,217.041,190.847
301,0,94.8365,415.559,1107.85,123.709,143.254,1129.53,-83.8034,324.286,1201.94,-77.1588,219.442,1197.22,117.472,480.257,864.899,172.094,438.428,678.287,144.943,430.743,505.205,180.568,361.81,251.165,126.162,308.52,202.797,335.378,364.938,205.798,21.7526,107.796,843.483,-34.9796,144.745,658.239,-134.005,149.149,465.511,-216.394,200.369,270.874,-297.215,237.42,248.978,-90.5608,216.96,190.797
302,0,96.0279,416.457,1108.08,125.033,144.147,1129.76,-82.4401,325.056,1201.73,-75.7667,220.136,1196.93,116.951,480.421,864.081,170.143,438.245,677.432,141.168,430.448,504.25,173.468,361.018,250.051,118.71,307.782,202.088,328.436,365.07,204.465,23.451,108.501,843.076,-33.0344,145.06,657.696,-135.179,149.224,466.634,-221.127,200.133,273.452,-302.387,237.212,253.164,-97.3116,216.952,190.728
303,0,97.2705,417.418,1108.36,126.408,145.103,1130.03,-81.0557,325.811,1201.57,-74.3305,220.81,1196.66,116.512,480.68,863.382,168.159,438.169,676.637,137.381,430.33,503.374,166.357,360.422,249.001,111.24,307.271,201.381,321.537,365.185,203.294,25.6142,109.236,842.618,-30.5106,145.298,657.065,-135.866,149.247,467.804,-225.511,199.886,276.242,-307.169,237.036,257.716,-104.047,217.02,190.642
304,0,98.5446,418.441,1108.67,127.814,146.12,1130.33,-79.6661,326.56,1201.45,-72.8707,221.472,1196.41,116.133,481.027,862.796,166.121,438.195,675.892,133.593,430.377,502.57,159.306,359.998,248.025,103.831,306.949,200.693,314.735,365.257,202.273,28.2505,109.992,842.117,-27.3918,145.443,656.351,-136.033,149.2,469.025,-229.497,199.612,279.258,-311.495,236.874,262.657,-110.757,217.164,190.546
