Trajectories
100
,,Subj:LASI,,,Subj:RASI,,,Subj:LPSI,,,Subj:RPSI,,,Subj:LTHI,,,Subj:LKNE,,,Subj:LTIB,,,Subj:LANK,,,Subj:LHEE,,,Subj:LTOE,,,Subj:RTHI,,,Subj:RKNE,,,Subj:RTIB,,,Subj:RANK,,,Subj:RHEE,,,Subj:RTOE,,,
Frame,Sub Frame,X,Y,Z,X,Y,Z,X,Y,Z,X,Y,Z,X,Y,Z,X,Y,Z,X,Y,Z,X,Y,Z,X,Y,Z,X,Y,Z,X,Y,Z,X,Y,Z,X,Y,Z,X,Y,Z,X,Y,Z,X,Y,Z
,,mm,mm,mm,mm,mm,mm,mm,mm,mm,mm,mm,mm,mm,mm,mm,mm,mm,mm,mm,mm,mm,mm,mm,mm,mm,mm,mm,mm,mm,mm,mm,mm,mm,mm,mm,mm,mm,mm,mm,mm,mm,mm,mm,mm,mm,mm,mm,mm
1,0,69.2261,468.485,1150.24,80.8679,194.886,1156.11,-135.849,358.513,1215.99,-122.835,256.636,1208.55,-18.2562,513.725,869.019,-43.0917,482.025,672.789,-122.057,480.588,512.952,-184.141,411.833,266.368,-256.9,368.403,236.921,-46.1768,394.111,190.259,138.075,131.895,886.952,199.293,164.085,707.579,117.829,150.749,502.686,37.698,184.84,301.622,-41.9945,225.19,274.673,161.963,192.689,221.989
2,0,67.9646,467.595,1150.68,81.2616,194.267,1157.93,-135.765,357.476,1218.29,-122.622,255.754,1210.57,-22.8458,512.694,870.056,-49.5763,480.867,674.28,-129.603,479.731,514.981,-192.847,411.27,268.532,-265.554,367.74,239.965,-56.1884,393.696,189.971,136.342,131.289,888.478,195.928,164.343,708.058,130.217,151.529,502.19,65.4085,185.928,297.57,-12.5677,224.858,265.74,192.377,196.084,224.287
3,0,67.0017,466.71,1150.98,81.886,193.652,1159.44,-135.487,356.383,1220.22,-122.194,254.798,1212.25,-26.9495,511.678,870.916,-55.5791,479.762,675.573,-136.804,478.96,516.906,-201.541,410.838,270.714,-274.259,367.276,243.069,-66.2365,393.295,189.713,134.807,130.62,889.543,192.992,164.678,708.319,141.517,152.395,501.55,90.748,187.211,293.842,14.413,224.898,257.717,220.418,199.63,226.168
4,0,66.337,465.83,1151.12,82.7407,193.042,1160.65,-135.016,355.235,1221.76,-121.55,253.767,1213.57,-30.5673,510.677,871.598,-61.0988,478.709,676.667,-143.658,478.275,518.725,-210.223,410.537,272.914,-283.013,367.008,246.232,-76.3213,392.907,189.486,133.474,129.89,890.149,190.485,165.09,708.363,151.727,153.348,500.765,113.713,188.689,290.433,38.9419,225.309,250.599,246.076,203.319,227.625
5,0,65.9693,464.955,1151.12,83.8248,192.435,1161.54,-134.352,354.031,1222.92,-120.691,252.662,1214.55,-33.6985,509.692,872.103,-66.132,477.711,677.562,-150.164,477.675,520.439,-218.89,410.365,275.131,-291.816,366.936,249.456,-86.4436,392.535,189.29,132.354,129.113,890.305,188.406,165.578,708.19,160.847,154.386,499.835,134.295,190.358,287.335,61.0037,226.087,244.37,269.325,207.139,228.646
6,0,65.8959,464.085,1150.96,85.1364,191.832,1162.13,-133.498,352.774,1223.71,-119.62,251.485,1215.19,-36.3422,508.722,872.427,-70.6713,476.77,678.254,-156.315,477.16,522.046,-227.536,410.321,277.367,-300.663,367.057,252.745,-96.6049,392.179,189.124,131.469,128.311,890.031,186.748,166.142,707.801,168.877,155.508,498.755,152.478,192.211,284.528,80.5716,227.221,238.999,290.119,211.061,229.209
7,0,66.1124,463.218,1150.66,86.6719,191.234,1162.42,-132.457,351.467,1224.11,-118.34,250.238,1215.49,-38.4971,507.768,872.567,-74.7041,475.894,678.737,-162.102,476.729,523.544,-236.15,410.401,279.622,-309.546,367.364,256.106,-106.807,391.844,188.988,130.853,127.519,889.354,185.503,166.782,707.197,175.816,156.708,497.52,168.244,194.236,281.982,97.6073,228.694,234.44,308.39,215.04,229.286
8,0,66.6114,462.354,1150.2,88.4258,190.638,1162.41,-131.234,350.112,1224.15,-116.858,248.925,1215.45,-40.1617,506.831,872.516,-78.2115,475.09,679.005,-167.508,476.384,524.931,-244.71,410.601,281.899,-318.447,367.844,259.551,-117.053,391.531,188.88,130.547,126.784,888.315,184.656,167.493,706.379,181.668,157.981,496.125,181.571,196.416,279.658,112.067,230.48,230.623,324.056,219.018,228.85
9,0,67.3823,461.491,1149.6,90.3895,190.044,1162.11,-129.838,348.716,1223.83,-115.182,247.55,1215.1,-41.3344,505.914,872.269,-81.1672,474.372,679.047,-172.509,476.122,526.203,-253.188,410.912,284.199,-327.338,368.483,263.096,-127.344,391.246,188.794,130.6,126.162,886.966,184.186,168.272,705.351,186.437,159.317,494.563,192.442,198.726,277.507,123.908,232.543,227.463,337.032,222.92,227.883
10,0,68.4108,460.627,1148.85,92.5515,189.452,1161.53,-128.279,347.286,1223.16,-113.323,246.12,1214.44,-42.0135,505.02,871.817,-83.538,473.756,678.851,-177.074,475.945,527.356,-261.54,411.322,286.528,-336.176,369.255,266.763,-137.682,390.988,188.725,131.059,125.712,885.364,184.06,169.107,704.115,190.137,160.704,492.83,200.858,201.135,275.476,133.103,234.835,224.862,347.25,226.665,226.384
11,0,69.6786,459.759,1147.95,94.8968,188.86,1160.7,-126.571,345.831,1222.15,-111.299,244.644,1213.49,-42.1972,504.157,871.151,-85.2843,473.259,678.404,-181.161,475.853,528.385,-269.711,411.817,288.892,-344.901,370.131,270.583,-148.067,390.758,188.659,131.962,125.487,883.572,184.241,169.987,702.675,192.789,162.126,490.923,206.838,203.607,273.511,139.65,237.299,222.711,354.669,230.171,224.381
12,0,71.163,458.886,1146.92,97.4063,188.267,1159.62,-124.73,344.361,1220.83,-109.126,243.131,1212.28,-41.8836,503.334,870.262,-86.3613,472.903,677.691,-184.721,475.849,529.289,-277.632,412.382,291.303,-353.431,371.073,274.591,-158.495,390.549,188.585,133.327,125.527,881.65,184.68,170.892,701.039,194.424,163.562,488.846,210.434,206.097,271.561,143.586,239.867,220.904,359.302,233.361,221.932
13,0,72.8374,458.005,1145.75,100.057,187.669,1158.33,-122.778,342.888,1219.23,-106.829,241.592,1210.83,-41.0706,502.563,869.146,-86.7215,472.711,676.703,-187.697,475.935,530.065,-285.218,412.996,293.772,-361.664,372.039,278.83,-168.96,390.352,188.487,135.149,125.853,879.653,185.32,171.799,699.215,195.085,164.991,486.604,211.736,208.56,269.589,144.994,242.466,219.34,361.221,236.172,219.127
14,0,74.6716,457.114,1144.44,102.822,187.066,1156.83,-120.736,341.425,1217.36,-104.433,240.041,1209.17,-39.7557,501.861,867.796,-86.317,472.705,675.427,-190.027,476.117,530.714,-292.376,413.639,296.319,-369.478,372.984,283.347,-179.45,390.15,188.353,137.388,126.455,877.625,186.099,172.68,697.214,194.826,166.385,484.214,210.875,210.946,267.565,144.012,245.021,217.933,360.566,238.561,216.081
15,0,76.632,456.21,1143.02,105.671,186.453,1155.17,-118.631,339.984,1215.26,-101.968,238.49,1207.34,-37.9365,501.244,866.215,-85.103,472.905,673.861,-191.645,476.4,531.239,-299.004,414.294,298.966,-376.736,373.861,288.191,-189.943,389.923,188.176,139.97,127.297,875.597,186.95,173.503,695.051,193.713,167.718,481.696,208.022,213.207,265.48,140.829,247.455,216.615,357.548,240.507,212.927
16,0,78.6828,455.294,1141.48,108.569,185.828,1153.38,-116.489,338.579,1212.97,-99.4657,236.954,1205.39,-35.6109,500.732,864.408,-83.0408,473.33,672.006,-192.484,476.793,531.647,-304.995,414.943,301.741,-383.287,374.629,293.413,-200.412,389.643,187.957,142.789,128.311,873.585,187.804,174.235,692.746,191.822,168.96,479.078,203.388,215.297,263.338,135.683,249.698,215.341,352.439,242.011,209.802
17,0,80.7865,454.364,1139.85,111.48,185.187,1151.48,-114.34,337.224,1210.52,-96.9599,235.445,1203.33,-32.7786,500.344,862.39,-80.1012,473.993,669.873,-192.483,477.304,531.951,-310.246,415.571,304.676,-388.976,375.249,299.061,-210.816,389.283,187.712,145.708,129.405,871.592,188.592,174.84,690.322,189.235,170.084,476.393,197.214,217.173,261.158,128.855,251.69,214.086,345.561,243.097,206.833
18,0,82.9052,453.421,1138.14,114.365,184.526,1149.52,-112.213,335.928,1207.96,-94.4864,233.98,1201.23,-29.4425,500.098,860.181,-76.2669,474.9,667.481,-191.585,477.943,532.165,-314.659,416.17,307.807,-393.653,375.694,305.176,-221.101,388.818,187.471,148.571,130.468,869.614,189.25,175.287,687.805,186.041,171.064,473.678,189.761,218.802,258.971,120.647,253.381,212.849,337.262,243.806,204.126
19,0,85.0017,452.465,1136.36,117.185,183.841,1147.51,-110.139,334.704,1205.33,-92.081,232.569,1199.12,-25.6107,500.008,857.812,-71.5352,476.051,664.861,-189.744,478.72,532.311,-318.15,416.734,311.172,-397.182,375.946,311.787,-231.195,388.229,187.286,151.215,131.386,867.637,189.716,175.548,685.227,182.328,171.875,470.972,181.302,220.159,256.818,111.375,254.74,211.644,327.901,244.19,201.76
20,0,87.0407,451.5,1134.54,119.899,183.128,1145.51,-108.145,333.559,1202.68,-89.7791,231.225,1197.03,-21.2989,500.082,855.32,-65.9188,477.439,662.054,-186.929,479.643,532.411,-320.649,417.265,314.812,-399.447,376.001,318.912,-241.008,387.508,187.227,153.485,132.048,865.649,189.936,175.6,682.619,178.179,172.499,468.315,172.102,221.228,254.742,101.348,255.754,210.495,317.823,244.308,199.777
21,0,88.9894,450.527,1132.7,122.468,182.383,1143.54,-106.26,332.5,1200.04,-87.6149,229.958,1195.01,-16.5328,500.323,852.751,-59.4465,479.045,659.112,-183.122,480.719,532.495,-322.109,417.767,318.763,-400.366,375.865,326.547,-250.427,386.663,187.381,155.244,132.361,863.643,189.864,175.428,680.016,173.673,172.923,465.744,162.414,222.007,252.785,90.854,256.427,209.435,307.339,244.219,198.189
22,0,90.8191,449.551,1130.86,124.855,181.6,1141.63,-104.508,331.531,1197.46,-85.6198,228.777,1193.1,-11.35,500.724,850.157,-52.1619,480.844,656.098,-178.322,481.951,532.59,-322.502,418.249,323.058,-399.89,375.556,334.669,-259.316,385.722,187.847,156.389,132.26,861.621,189.458,175.029,677.451,168.877,173.141,463.292,152.463,222.503,250.984,80.1464,256.78,208.494,296.717,243.977,196.975
23,0,92.5053,448.573,1129.06,127.027,180.778,1139.81,-102.913,330.652,1194.98,-83.8225,227.688,1191.32,-5.80144,501.271,847.593,-44.1224,482.803,653.08,-172.545,483.338,532.726,-321.823,418.722,327.718,-398.016,375.099,343.231,-267.515,384.734,188.728,156.858,131.712,859.597,188.685,174.405,674.956,163.847,173.155,460.985,142.437,222.736,249.37,69.4351,256.852,207.698,286.163,243.63,196.091
24,0,94.0287,447.599,1127.33,128.954,179.912,1138.1,-101.492,329.865,1192.65,-82.2471,226.695,1189.71,0.0487384,501.941,845.119,-35.3965,484.881,650.135,-165.824,484.875,532.935,-320.085,419.195,332.755,-394.78,374.526,352.162,-274.843,383.768,190.122,156.631,130.721,857.598,187.517,173.571,672.559,158.624,172.972,458.846,132.489,222.734,247.961,58.8807,256.69,207.064,275.827,243.216,195.479
25,0,95.3753,446.631,1125.68,130.611,179.001,1136.52,-100.261,329.164,1190.48,-80.9134,225.801,1188.27,6.12419,502.705,842.79,-26.0605,487.032,647.343,-158.205,486.547,533.243,-317.316,419.679,338.164,-390.258,373.87,361.366,-281.1,382.913,192.111,155.731,129.326,855.66,185.928,172.548,670.283,153.236,172.608,456.888,122.725,222.533,246.764,48.5939,256.35,206.597,265.799,242.765,195.075
26,0,96.5365,445.673,1124.16,131.978,178.043,1135.1,-99.2309,328.546,1188.53,-79.8358,225.004,1187.04,12.3391,503.528,840.663,-16.1961,489.209,644.785,-149.749,488.335,533.679,-313.56,420.179,343.918,-384.562,373.162,370.725,-286.077,382.266,194.751,154.216,127.594,853.826,183.901,171.366,668.147,147.697,172.087,455.117,113.214,222.174,245.778,38.6374,255.893,206.293,256.117,242.297,194.815
27,0,97.5085,444.726,1122.79,133.042,177.038,1133.84,-98.4086,328.003,1186.8,-79.0229,224.302,1186.02,18.6021,504.373,838.787,-5.88692,491.361,642.539,-140.527,490.213,534.265,-308.866,420.698,349.973,-377.829,372.431,380.1,-289.563,381.932,198.061,152.168,125.617,852.14,181.418,170.06,666.164,142.012,171.435,453.536,103.986,221.699,244.989,29.0323,255.376,206.137,246.776,241.827,194.641
28,0,98.2925,443.794,1121.59,133.796,175.987,1132.75,-97.7965,327.527,1185.34,-78.4779,223.691,1185.23,24.8214,505.203,837.207,4.78396,493.441,640.682,-130.618,492.147,535.022,-303.287,421.235,356.261,-370.215,371.702,389.337,-291.355,382.008,202.018,149.68,123.497,850.643,178.469,168.671,664.341,136.174,170.684,452.14,95.0403,221.154,244.378,19.7655,254.851,206.108,237.74,241.362,194.508
29,0,98.8935,442.875,1120.59,134.239,174.893,1131.84,-97.3934,327.109,1184.16,-78.198,223.163,1184.66,30.9103,505.984,835.958,15.7359,495.402,639.282,-120.108,494.099,535.969,-296.88,421.786,362.692,-361.884,370.996,398.268,-291.271,382.576,206.558,146.842,121.339,849.361,175.043,167.24,662.681,130.17,169.868,450.922,86.3501,220.579,243.921,10.7987,254.362,206.178,228.952,240.909,194.382
30,0,99.3198,441.973,1119.82,134.376,173.761,1131.11,-97.194,326.74,1183.26,-78.1749,222.712,1184.33,36.7928,506.688,835.07,26.8917,497.205,638.396,-109.088,496.024,537.117,-289.696,422.346,369.158,-352.997,370.332,406.721,-289.162,383.689,211.57,143.733,119.243,848.311,171.138,165.811,661.185,123.982,169.023,449.872,77.8721,220.01,243.593,2.07712,253.944,206.319,220.346,240.47,194.244
31,0,99.582,441.087,1119.28,134.217,172.597,1130.55,-97.1897,326.411,1182.67,-78.3953,222.327,1184.21,42.4086,507.293,834.565,38.1785,498.817,638.074,-97.6505,497.878,538.479,-281.787,422.908,375.534,-343.702,369.725,414.524,-284.92,385.37,216.911,140.408,117.295,847.489,166.756,164.424,659.85,117.593,168.181,448.979,69.552,219.477,243.367,-6.46162,253.619,206.508,211.853,240.046,194.081
32,0,99.6922,440.217,1118.99,133.778,171.411,1130.16,-97.3689,326.114,1182.38,-78.8413,221.999,1184.32,47.7167,507.787,834.456,49.5267,500.209,638.352,-85.8922,499.615,540.061,-273.201,423.468,381.68,-334.128,369.193,421.508,-278.488,387.601,222.412,136.902,115.563,846.878,161.902,163.116,658.671,110.985,167.374,448.233,61.3318,219.006,243.221,-14.8811,253.398,206.721,203.41,239.64,193.895
33,0,99.6628,439.365,1118.95,133.079,170.21,1129.94,-97.7174,325.839,1182.41,-79.4915,221.719,1184.64,52.6976,508.165,834.753,60.8697,501.365,639.25,-73.9093,501.192,541.866,-263.982,424.023,387.451,-324.379,368.754,427.518,-269.865,390.325,227.887,133.225,114.093,846.449,156.589,161.921,657.645,104.142,166.629,447.626,53.1545,218.611,243.138,-23.2404,253.282,206.946,194.964,239.254,193.688
34,0,99.5064,438.532,1119.16,132.142,169.008,1129.88,-98.2189,325.581,1182.74,-80.3211,221.476,1185.17,57.3535,508.43,835.459,72.1426,502.272,640.776,-61.7986,502.568,543.89,-254.171,424.573,392.701,-314.527,368.428,432.412,-259.104,393.453,233.154,129.37,112.911,846.162,150.835,160.866,656.769,97.0524,165.968,447.15,44.969,218.303,243.104,-31.5906,253.265,207.176,186.474,238.89,193.469
35,0,99.2345,437.72,1119.61,130.994,167.816,1129.98,-98.8557,325.335,1183.37,-81.3036,221.261,1185.9,61.7063,508.595,836.573,83.2803,502.929,642.925,-49.6562,503.71,546.126,-243.808,425.121,397.288,-304.613,368.236,436.07,-246.316,396.866,238.038,125.321,112.023,845.98,144.663,159.969,656.039,89.7107,165.408,446.801,36.7323,218.084,243.112,-39.973,253.334,207.412,177.91,238.552,193.245
36,0,98.8574,436.934,1120.29,129.66,166.649,1130.21,-99.6091,325.098,1184.29,-82.4112,221.067,1186.82,65.7939,508.672,838.089,94.217,503.339,645.673,-37.5767,504.596,548.558,-232.929,425.673,401.079,-294.648,368.197,438.392,-231.656,400.431,242.392,121.061,111.421,845.865,138.1,159.245,655.456,82.116,164.959,446.578,28.4111,217.952,243.162,-48.4179,253.474,207.663,169.256,238.243,193.024
37,0,98.3839,436.179,1121.19,128.169,165.519,1130.57,-100.46,324.867,1185.48,-83.6161,220.887,1187.92,69.6655,508.682,840,104.885,503.51,648.985,-25.6512,505.207,551.159,-221.57,426.235,403.959,-284.613,368.326,439.304,-215.319,404.013,246.093,116.577,111.08,845.792,131.176,158.698,655.02,74.2731,164.627,446.48,19.9826,217.901,243.257,-56.9459,253.666,207.946,160.502,237.964,192.813
38,0,97.821,435.459,1122.27,126.548,164.442,1131.05,-101.388,324.644,1186.94,-84.8908,220.717,1189.19,73.3754,508.641,842.293,115.213,503.456,652.811,-13.9668,505.54,553.895,-209.763,426.815,405.831,-274.463,368.632,438.757,-197.523,407.488,249.059,111.868,110.972,845.743,123.926,158.325,654.733,66.1923,164.409,446.511,11.4338,217.92,243.405,-65.5684,253.894,208.279,151.649,237.719,192.613
39,0,97.1744,434.783,1123.52,124.822,163.429,1131.65,-102.374,324.43,1188.63,-86.2095,220.553,1190.63,76.9772,508.567,844.951,125.128,503.196,657.088,-2.60392,505.598,556.718,-197.535,427.419,406.624,-264.133,369.115,436.728,-178.5,410.754,251.239,106.945,111.06,845.717,116.383,158.117,654.599,57.8891,164.302,446.673,2.76058,217.998,243.62,-74.2895,254.142,208.686,142.701,237.507,192.427
40,0,96.4485,434.158,1124.89,123.018,162.495,1132.34,-103.399,324.231,1190.54,-87.5484,220.396,1192.21,80.5179,508.472,847.955,134.556,502.747,661.74,8.36532,505.394,559.567,-184.913,428.05,406.292,-253.542,369.765,433.218,-158.477,413.74,252.62,101.828,111.308,845.722,108.584,158.06,654.619,49.3833,164.296,446.972,-6.03386,218.123,243.914,-83.1077,254.397,209.192,133.663,237.327,192.253
41,0,95.6467,433.592,1126.37,121.158,161.648,1133.13,-104.446,324.051,1192.65,-88.8862,220.248,1193.94,84.0332,508.365,851.279,143.421,502.131,666.685,18.8788,504.949,562.374,-171.912,428.707,404.816,-242.603,370.562,428.255,-137.671,416.409,253.222,96.549,111.68,845.777,100.565,158.134,654.798,40.6987,164.377,447.41,-14.9406,218.281,244.303,-92.0169,254.65,209.82,124.545,237.175,192.09
42,0,94.7723,433.092,1127.92,119.264,160.899,1134,-105.496,323.9,1194.91,-90.2048,220.113,1195.8,87.5443,508.25,854.888,151.646,501.368,671.828,28.8863,504.291,565.058,-158.545,429.388,402.206,-231.222,371.475,421.889,-116.27,418.759,253.091,91.1386,112.143,845.905,92.3622,158.315,655.135,31.8622,164.531,447.991,-23.9464,218.462,244.8,-101.008,254.894,210.592,115.352,237.048,191.934
43,0,93.8287,432.666,1129.51,117.353,160.253,1134.94,-106.534,323.785,1197.32,-91.4888,219.998,1197.76,91.0556,508.125,858.746,159.161,500.479,677.071,38.3505,503.45,567.533,-144.815,430.085,398.499,-219.309,372.47,414.194,-94.4347,420.814,252.296,85.6269,112.668,846.133,84.0131,158.579,655.632,22.9029,164.741,448.717,-33.0357,218.655,245.419,-110.072,255.126,211.526,106.09,236.94,191.782
44,0,92.8199,432.318,1131.11,115.443,159.713,1135.94,-107.545,323.716,1199.83,-92.7262,219.913,1199.83,94.5555,507.988,862.806,165.896,499.481,682.313,47.2477,502.461,569.711,-130.719,430.789,393.755,-206.78,373.506,405.262,-72.2885,422.617,250.922,80.0382,113.23,846.484,75.5544,158.901,656.284,13.8518,164.993,449.588,-42.1913,218.85,246.17,-119.195,255.344,212.638,96.7607,236.843,191.631
45,0,91.7513,432.052,1132.7,113.55,159.282,1136.99,-108.515,323.706,1202.41,-93.9077,219.867,1201.97,98.0168,507.83,867.014,171.791,498.391,687.452,55.5683,501.36,571.506,-116.245,431.485,388.06,-193.564,374.546,395.211,-49.9211,424.216,249.07,74.3891,113.811,846.975,67.0234,159.256,657.086,4.74058,165.27,450.601,-51.3958,219.041,247.061,-128.365,255.547,213.937,87.3662,236.751,191.478
46,0,90.6299,431.869,1134.24,111.685,158.957,1138.08,-109.431,323.763,1205.02,-95.0267,219.872,1204.17,101.4,507.643,871.309,176.796,497.225,692.388,63.315,500.18,572.842,-101.38,432.163,381.519,-179.604,375.558,384.175,-27.3913,425.658,246.845,68.6899,114.394,847.617,58.458,159.623,658.03,-4.39881,165.556,451.751,-60.6321,219.22,248.096,-137.57,255.738,215.429,77.906,236.658,191.32
47,0,89.4647,431.767,1135.73,109.862,158.733,1139.2,-110.282,323.9,1207.65,-96.079,219.941,1206.4,104.657,507.421,875.624,180.871,495.996,697.028,70.5026,498.954,573.652,-86.1071,432.806,374.257,-164.862,376.517,372.305,-4.73334,426.972,244.363,62.9471,114.97,848.41,49.8966,159.981,659.103,-13.5348,165.84,453.03,-69.8842,219.384,249.275,-146.797,255.918,217.115,68.3787,236.558,191.156
48,0,88.267,431.743,1137.14,108.092,158.604,1140.32,-111.057,324.126,1210.24,-97.0618,220.087,1208.63,107.732,507.158,879.887,183.992,494.714,701.284,77.1549,497.709,573.89,-70.4151,433.404,366.413,-149.319,377.411,359.769,18.0341,428.166,241.74,57.1679,115.531,849.349,41.3783,160.316,660.291,-22.6368,166.11,454.427,-79.1377,219.529,250.596,-156.035,256.087,218.992,58.7828,236.448,190.982
49,0,87.0503,431.789,1138.46,106.385,158.561,1141.45,-111.748,324.452,1212.78,-97.9738,220.323,1210.84,110.569,506.854,884.02,186.15,493.39,705.083,83.3022,496.47,573.531,-54.3,433.944,358.138,-132.984,378.237,346.751,40.898,429.222,239.096,51.3656,116.074,850.417,32.9428,160.615,661.576,-31.6758,166.357,455.93,-88.3799,219.651,252.051,-165.273,256.246,221.052,49.1171,236.325,190.799
50,0,85.8306,431.897,1139.67,104.753,158.594,1142.55,-112.346,324.886,1215.21,-98.8141,220.66,1213,113.112,506.51,887.947,187.354,492.03,708.364,88.9789,495.255,572.57,-37.7729,434.417,349.589,-115.89,379.001,333.44,63.8412,430.098,236.551,45.5633,116.6,851.592,24.63,160.874,662.938,-40.6247,166.573,457.522,-97.6,219.748,253.631,-174.503,256.392,223.284,39.3808,236.188,190.605
51,0,84.6259,432.057,1140.77,103.206,158.692,1143.63,-112.845,325.433,1217.52,-99.5821,221.108,1215.06,115.307,506.137,891.588,187.633,490.642,711.079,94.2197,494.077,571.028,-20.8653,434.812,340.927,-98.1012,379.715,320.037,86.8316,430.734,234.224,39.7973,117.11,852.845,16.4801,161.087,664.354,-49.4584,166.755,459.187,-106.79,219.817,255.324,-183.717,256.522,225.674,29.5744,236.037,190.4
52,0,83.4564,432.258,1141.76,101.757,158.844,1144.65,-113.239,326.098,1219.67,-100.277,221.675,1217.01,117.108,505.747,894.87,187.032,489.231,713.2,99.0566,492.942,568.947,-3.63543,435.122,332.313,-79.7127,380.395,306.741,109.814,431.062,232.226,34.1181,117.608,854.143,8.53283,161.259,665.802,-58.1544,166.898,460.904,-115.942,219.854,257.114,-192.911,256.63,228.207,19.6991,235.872,190.184
53,0,82.3437,432.489,1142.61,100.416,159.039,1145.6,-113.522,326.884,1221.63,-100.897,222.367,1218.8,118.471,505.361,897.722,185.618,487.804,714.713,103.517,491.854,566.387,13.8275,435.337,323.898,-60.8558,381.052,293.747,132.702,431.013,230.657,28.5884,118.102,855.452,0.82704,161.392,667.254,-66.6926,167.002,462.653,-125.055,219.854,258.986,-202.082,256.709,230.862,9.75742,235.695,189.959
54,0,81.3104,432.739,1143.33,99.196,159.269,1146.47,-113.692,327.789,1223.37,-101.439,223.187,1220.41,119.362,504.999,900.084,183.476,486.366,715.62,107.621,490.807,563.424,31.4002,435.447,315.821,-41.6974,381.691,281.243,155.375,430.533,229.598,23.2803,118.598,856.734,-6.59946,161.497,668.684,-75.0553,167.068,464.412,-134.126,219.814,260.922,-211.231,256.749,233.623,-0.247651,235.508,189.726
55,0,80.38,432.999,1143.92,98.11,159.525,1147.24,-113.745,328.811,1224.88,-101.901,224.134,1221.8,119.754,504.686,901.904,180.704,484.922,715.942,111.381,489.796,560.141,48.9242,435.44,308.2,-22.4413,382.308,269.395,177.672,429.587,229.1,18.2695,119.104,857.951,-13.7104,161.585,670.065,-83.2266,167.098,466.159,-143.157,219.728,262.907,-220.363,256.739,236.469,-10.3123,235.311,189.488
56,0,79.5756,433.265,1144.36,97.1706,159.803,1147.89,-113.681,329.942,1226.11,-102.277,225.203,1222.94,119.63,504.444,903.143,177.417,483.478,715.71,114.8,488.808,556.623,66.2075,435.303,301.131,-3.32593,382.887,258.35,199.395,428.169,229.18,13.6299,119.629,859.068,-20.4713,161.667,671.369,-91.1923,167.094,467.871,-152.151,219.59,264.922,-229.485,256.666,239.381,-20.4321,235.107,189.25
57,0,78.9197,433.532,1144.66,96.39,160.098,1148.4,-113.498,331.173,1227.07,-102.562,226.387,1223.82,118.985,504.294,903.777,173.741,482.04,714.97,117.874,487.829,552.955,83.029,435.02,294.681,15.3798,383.399,248.225,220.315,426.301,229.808,9.42754,120.182,860.05,-26.8495,161.758,672.566,-98.9392,167.062,469.526,-161.114,219.395,266.953,-238.605,256.519,242.342,-30.6026,234.895,189.014
58,0,78.4331,433.8,1144.8,95.7796,160.412,1148.77,-113.2,332.492,1227.72,-102.75,227.675,1224.4,117.829,504.247,903.798,169.807,480.614,713.775,120.591,486.846,549.213,99.146,434.577,288.885,33.3834,383.808,239.101,240.174,424.033,230.905,5.7156,120.772,860.865,-32.8139,161.871,673.627,-106.454,167.006,471.101,-170.05,219.138,268.985,-247.733,256.285,245.335,-40.8188,234.676,188.785
59,0,78.1346,434.074,1144.77,95.3494,160.746,1148.96,-112.788,333.884,1228.07,-102.834,229.05,1224.68,116.192,504.308,903.214,165.751,479.209,712.187,122.938,485.844,545.462,114.303,433.958,283.746,50.3779,384.069,231.028,258.7,421.436,232.343,2.53085,121.408,861.484,-38.3347,162.021,674.523,-113.722,166.933,472.576,-178.967,218.816,271.007,-256.88,255.951,248.347,-51.0758,234.449,188.566
60,0,78.0396,434.359,1144.58,95.1073,161.106,1148.97,-112.266,335.333,1228.1,-102.808,230.496,1224.63,114.124,504.47,902.053,161.705,477.83,710.271,124.898,484.809,541.756,128.244,433.15,279.239,66.0549,384.139,224.015,275.621,418.598,233.948,-0.108016,122.098,861.882,-43.3829,162.218,675.225,-120.728,166.846,473.932,-187.866,218.423,273.009,-266.053,255.508,251.371,-61.3683,234.213,188.36
61,0,78.1597,434.668,1144.2,95.0586,161.499,1148.8,-111.641,336.818,1227.8,-102.667,231.992,1224.26,111.7,504.716,900.359,157.799,476.487,708.092,126.455,483.733,538.133,140.725,432.145,275.31,80.1177,383.98,218.039,290.675,415.608,235.513,-2.19999,122.849,862.036,-47.9292,162.473,675.702,-127.452,166.754,475.15,-196.748,217.96,274.986,-275.255,254.946,254.402,-71.6912,233.967,188.165
62,0,78.502,435.011,1143.64,95.2055,161.933,1148.42,-110.921,338.321,1227.19,-102.405,233.515,1223.56,109.022,505.019,898.196,154.147,475.187,705.716,127.6,482.61,534.619,151.526,430.939,271.889,92.2967,383.561,213.046,303.632,412.555,236.813,-3.75956,123.667,861.929,-51.9436,162.792,675.927,-133.871,166.66,476.216,-205.608,217.425,276.937,-284.484,254.26,257.445,-82.0396,233.709,187.979
63,0,79.0684,435.405,1142.89,95.5465,162.419,1147.84,-110.115,339.82,1226.27,-102.022,235.042,1222.54,106.217,505.343,895.642,150.854,473.94,703.204,128.329,481.442,531.231,160.465,429.538,268.89,102.364,382.869,208.957,314.302,409.517,237.63,-4.813,124.556,861.545,-55.3944,163.179,675.872,-139.956,166.568,477.118,-214.431,216.82,278.864,-293.725,253.448,260.509,-92.4093,233.44,187.797
64,0,79.8553,435.864,1141.94,96.076,162.967,1147.04,-109.234,341.294,1225.05,-101.516,236.55,1221.21,103.434,505.65,892.791,148.003,472.756,700.613,128.652,480.234,527.975,167.407,427.955,266.225,110.148,381.907,205.676,322.556,406.56,237.775,-5.39358,125.518,860.875,-58.2477,163.631,675.511,-145.672,166.483,477.848,-223.196,216.15,280.778,-302.953,252.512,263.617,-102.797,233.161,187.608
65,0,80.853,436.402,1140.79,96.7841,163.586,1146.04,-108.29,342.724,1223.55,-100.889,238.015,1219.57,100.834,505.9,889.743,145.658,471.643,697.995,128.586,479.003,524.855,172.271,426.214,263.81,115.541,380.699,203.095,328.33,403.732,237.108,-5.53641,126.553,859.909,-60.4669,164.145,674.822,-150.98,166.404,478.401,-231.868,215.419,282.691,-312.127,251.458,266.797,-113.201,232.873,187.402
66,0,82.0462,437.035,1139.44,97.6565,164.286,1144.82,-107.296,344.091,1221.79,-100.148,239.418,1217.65,98.5858,506.062,886.606,143.858,470.613,695.393,128.162,477.768,521.874,175.039,424.347,261.57,118.512,379.284,201.106,331.634,401.071,235.559,-5.27336,127.657,858.643,-62.0131,164.709,673.787,-155.834,166.332,478.778,-240.4,214.635,284.625,-321.19,250.299,270.09,-123.621,232.582,187.166
67,0,83.4137,437.773,1137.89,98.6748,165.072,1143.41,-106.268,345.379,1219.79,-99.302,240.741,1215.48,96.846,506.114,883.487,142.621,469.677,692.842,127.42,476.557,519.034,175.75,422.395,259.45,119.102,377.72,199.605,332.55,398.601,233.137,-4.62872,128.824,857.076,-62.8456,165.31,672.392,-160.182,166.264,478.985,-248.735,213.809,286.606,-330.066,249.052,273.546,-134.059,232.296,186.887
68,0,84.929,438.624,1136.16,99.8163,165.95,1141.8,-105.22,346.576,1217.6,-98.3627,241.968,1213.08,95.7498,506.049,880.485,141.937,468.848,690.371,126.408,475.403,516.34,174.503,420.407,257.413,117.429,376.072,198.496,331.228,396.339,229.931,-3.61604,130.045,855.213,-62.923,165.93,670.63,-163.968,166.194,479.032,-256.8,212.95,288.665,-338.663,247.741,277.223,-144.517,232.024,186.557
69,0,86.561,439.591,1134.24,101.055,166.92,1140.02,-104.168,347.674,1215.24,-97.346,243.091,1210.49,95.3949,505.877,877.689,141.776,468.136,688.002,125.177,474.339,513.801,171.45,418.436,255.442,113.674,374.414,197.697,327.879,394.296,226.101,-2.23647,131.305,853.06,-62.2055,166.545,668.502,-167.134,166.117,478.937,-264.513,212.072,290.839,-346.872,246.396,281.185,-154.998,231.78,186.172
70,0,88.275,440.672,1132.16,102.362,167.979,1138.08,-103.128,348.666,1212.74,-96.271,244.104,1207.73,95.8298,505.624,875.168,142.082,467.555,685.746,123.779,473.404,511.426,166.783,416.534,253.54,108.076,372.817,197.139,322.756,392.484,221.859,-0.47887,132.589,850.635,-60.6567,167.133,666.016,-169.621,166.024,478.721,-271.783,211.189,293.168,-354.569,245.051,285.5,-165.502,231.576,185.74
71,0,90.0335,441.862,1129.94,103.706,169.122,1136,-102.116,349.555,1210.16,-95.1593,245.008,1204.84,97.0451,505.332,872.972,142.782,467.115,683.611,122.26,472.629,509.225,160.725,414.754,251.721,100.909,371.346,196.769,316.142,390.908,217.446,1.67835,133.875,847.957,-58.2468,167.665,663.193,-171.372,165.904,478.413,-278.513,210.314,295.693,-361.625,243.745,290.233,-176.022,231.428,185.279
72,0,91.7977,443.15,1127.6,105.055,170.339,1133.81,-101.146,350.344,1207.52,-94.0348,245.809,1201.87,98.9703,505.052,871.123,143.785,466.826,681.597,120.652,472.043,507.207,153.517,413.142,250.011,92.4737,370.055,196.544,308.333,389.573,213.104,4.26371,135.141,845.058,-54.9547,168.117,660.061,-172.333,165.747,478.044,-284.602,209.461,298.456,-367.905,242.517,295.443,-186.54,231.345,184.821
73,0,93.5285,444.518,1125.17,106.376,171.618,1131.54,-100.232,351.042,1204.87,-92.9231,246.516,1198.84,101.476,504.842,869.619,144.987,466.696,679.698,118.976,471.67,505.375,145.404,411.735,248.437,83.0715,368.983,196.434,299.614,388.477,209.049,7.30783,136.361,841.976,-50.7715,168.463,656.663,-172.459,165.54,477.65,-289.953,208.644,301.495,-373.278,241.406,301.18,-197.022,231.337,184.417
74,0,95.188,445.947,1122.67,107.637,172.942,1129.21,-99.388,351.663,1202.24,-91.8505,247.147,1195.8,104.38,504.757,868.43,146.275,466.729,677.904,117.23,471.519,503.728,136.622,410.558,247.025,72.9933,368.149,196.415,290.253,387.615,205.453,10.8377,137.508,838.759,-45.702,168.681,653.049,-171.711,165.273,477.271,-294.474,207.874,304.844,-377.623,240.449,307.474,-207.411,231.404,184.129
75,0,96.7408,447.413,1120.15,108.807,174.294,1126.87,-98.6252,352.223,1199.68,-90.8434,247.718,1192.79,107.466,504.846,867.505,147.531,466.928,676.202,115.397,471.594,502.257,127.39,409.625,245.793,62.5034,367.557,196.468,280.485,386.972,202.426,14.8709,138.557,835.464,-39.7665,168.752,649.281,-170.064,164.937,476.947,-298.082,207.16,308.529,-380.838,239.676,314.337,-217.622,231.54,184.034
76,0,98.1548,448.892,1117.64,109.858,175.655,1124.53,-97.9539,352.741,1197.21,-89.9275,248.253,1189.83,110.495,505.143,866.776,148.635,467.289,674.574,113.439,471.884,500.946,117.897,408.936,244.749,51.8288,367.192,196.578,270.503,386.525,200.017,19.4093,139.482,832.153,-33.0018,168.663,645.429,-167.504,164.523,476.718,-300.708,206.509,312.565,-382.843,239.106,321.752,-227.539,231.73,184.216
77,0,99.4024,450.355,1115.17,110.766,177.005,1122.25,-97.3831,353.237,1194.87,-89.1266,248.773,1186.96,113.228,505.667,866.166,149.473,467.807,673.006,111.304,472.369,499.772,108.301,408.476,243.893,41.1524,367.027,196.731,260.461,386.247,198.214,24.4356,140.261,828.896,-25.4603,168.409,641.572,-164.03,164.028,476.622,-302.3,205.923,316.953,-383.589,238.752,329.678,-237.011,231.948,184.762
78,0,100.461,451.778,1112.79,111.51,178.322,1120.05,-96.9204,353.731,1192.68,-88.4625,249.303,1184.21,115.442,506.417,865.594,149.94,468.469,671.48,108.927,473.019,498.709,98.7248,408.221,243.21,30.6103,367.023,196.915,250.467,386.103,196.956,29.9091,140.876,825.766,-17.2093,167.991,637.794,-159.657,163.45,476.696,-302.821,205.402,321.683,-383.056,238.61,338.042,-245.853,232.162,185.751
79,0,101.314,453.137,1110.52,112.071,179.59,1117.97,-96.5717,354.244,1190.67,-87.9539,249.863,1181.62,116.954,507.375,864.986,149.944,469.259,669.984,106.243,473.796,497.73,89.2547,408.138,242.682,20.2932,367.135,197.118,240.594,386.057,196.15,35.7657,141.314,822.833,-8.32825,167.417,634.18,-154.414,162.79,476.971,-302.255,204.941,326.724,-381.261,238.667,346.745,-253.848,232.331,187.249
80,0,101.95,454.408,1108.41,112.439,180.79,1116.04,-96.3418,354.792,1188.86,-87.6159,250.472,1179.21,117.626,508.505,864.284,149.407,470.157,668.506,103.187,474.66,496.808,79.946,408.189,242.281,10.2505,367.316,197.331,230.879,386.075,195.683,41.919,141.569,820.166,1.09386,166.703,630.817,-148.339,162.056,477.471,-300.601,204.533,332.031,-378.25,238.894,355.659,-260.76,232.414,189.298
81,0,102.364,455.576,1106.48,112.604,181.908,1114.29,-96.2341,355.39,1187.26,-87.4594,251.147,1177,117.382,509.761,863.449,148.274,471.137,667.042,99.7023,475.567,495.921,70.8256,408.333,241.978,0.496332,367.524,197.548,221.335,386.123,195.444,48.264,141.643,817.827,10.9622,165.871,627.79,-141.486,161.257,478.215,-297.878,204.165,337.543,-374.098,239.255,364.635,-266.341,232.37,191.909
82,0,102.556,456.626,1104.77,112.565,182.932,1112.75,-96.2509,356.049,1185.89,-87.4914,251.897,1175.02,116.203,511.086,862.464,146.507,472.172,665.591,95.7493,476.476,495.051,61.8974,408.532,241.747,-8.98194,367.72,197.766,211.955,386.175,195.329,54.6825,141.544,815.869,21.1794,164.949,625.177,-133.917,160.408,479.211,-294.116,203.827,343.179,-368.904,239.705,373.508,-270.345,232.166,195.059
83,0,102.53,457.549,1103.3,112.321,183.854,1111.44,-96.3931,356.775,1184.76,-87.7143,252.727,1173.28,114.13,512.422,861.335,144.092,473.233,664.16,91.3053,477.347,494.192,53.1482,408.749,241.565,-18.2161,367.877,197.985,202.722,386.208,195.258,61.0511,141.286,814.333,31.6493,163.967,623.05,-125.702,159.523,480.461,-289.359,203.504,348.849,-362.781,240.194,382.099,-272.544,231.776,198.687
84,0,102.298,458.342,1102.1,111.879,184.668,1110.4,-96.6606,357.568,1183.87,-88.1263,253.639,1171.81,111.252,513.715,860.092,141.035,474.287,662.761,86.3675,478.15,493.343,44.5534,408.958,241.413,-27.2492,367.976,198.212,193.608,386.208,195.171,67.2487,140.887,813.247,42.2793,162.959,621.47,-116.915,158.62,481.957,-283.658,203.182,354.445,-355.852,240.674,390.226,-272.744,231.191,202.696
85,0,101.872,459.007,1101.18,111.247,185.374,1109.64,-97.0524,358.424,1183.22,-88.7216,254.625,1170.61,107.696,514.915,858.779,137.358,475.305,661.409,80.9527,478.86,492.513,36.0814,409.137,241.283,-36.1285,368.009,198.455,184.585,386.165,195.036,73.1654,140.371,812.628,52.9828,161.957,620.485,-107.637,157.719,483.681,-277.071,202.848,359.854,-348.242,241.097,397.708,-270.795,230.415,206.962
86,0,101.269,459.549,1100.57,110.436,185.972,1109.16,-97.5662,359.336,1182.82,-89.4905,255.674,1169.71,103.613,515.983,857.451,133.103,476.259,660.124,75.0947,479.46,491.716,27.6982,409.275,241.174,-44.9003,367.98,198.728,175.628,386.077,194.839,78.7093,139.761,812.479,63.6806,160.991,620.133,-97.9483,156.838,485.609,-269.66,202.491,364.956,-340.067,241.423,404.373,-266.603,229.468,211.341
87,0,100.507,459.978,1100.27,109.462,186.469,1109,-98.1985,360.291,1182.66,-90.42,256.77,1169.11,99.1583,516.892,856.166,128.319,477.122,658.93,68.84,479.941,490.975,19.3701,409.368,241.092,-53.606,367.9,199.048,166.711,385.944,194.584,83.8132,139.081,812.794,74.3007,160.087,620.435,-87.9282,155.993,487.705,-261.485,202.103,369.63,-331.429,241.624,410.061,-260.131,228.382,215.677
88,0,99.609,460.305,1100.28,108.341,186.87,1109.15,-98.9448,361.272,1182.74,-91.4945,257.894,1168.81,94.4843,517.626,854.981,123.067,477.873,657.85,62.243,480.302,490.314,11.0663,409.418,241.049,-62.2795,367.788,199.433,157.813,385.769,194.285,88.4379,138.355,813.558,84.7782,159.268,621.399,-77.6553,155.2,489.931,-252.604,201.679,373.757,-322.414,241.679,414.63,-251.405,227.195,219.819
89,0,98.5954,460.547,1100.62,107.091,187.186,1109.61,-99.7993,362.261,1183.05,-92.6961,259.024,1168.83,89.7232,518.179,853.943,117.411,478.496,656.907,55.3606,480.548,489.759,2.7598,409.433,241.065,-70.9465,367.666,199.903,148.917,385.561,193.963,92.5741,137.602,814.752,95.0537,158.549,623.018,-67.2038,154.471,492.239,-243.07,201.217,377.225,-313.081,241.582,417.961,-240.504,225.95,223.63
90,0,97.4892,460.718,1101.28,105.732,187.426,1110.39,-100.755,363.239,1183.6,-94.0052,260.135,1169.17,84.9806,518.558,853.091,111.411,478.981,656.123,48.2477,480.688,489.337,-5.57149,409.426,241.159,-79.6246,367.558,200.475,140.011,385.326,193.638,96.2405,136.839,816.354,105.072,157.938,625.27,-56.643,153.813,494.581,-232.93,200.717,379.934,-303.465,241.338,419.957,-227.553,224.684,226.996
91,0,96.313,460.833,1102.24,104.284,187.602,1111.47,-101.803,364.184,1184.36,-95.4013,261.204,1169.81,80.3303,518.774,852.449,105.127,479.323,655.516,40.9529,480.736,489.07,-13.9448,409.409,241.353,-88.3241,367.485,201.169,131.085,385.074,193.327,99.4805,136.079,818.343,114.781,157.439,628.124,-46.0362,153.232,496.904,-222.221,200.183,381.797,-293.576,240.964,420.547,-212.714,223.424,229.836
92,0,95.0891,460.909,1103.51,102.768,187.724,1112.86,-102.934,365.076,1185.34,-96.8637,262.208,1170.77,75.8135,518.842,852.03,98.6114,479.523,655.102,33.5156,480.706,488.981,-22.3723,409.395,241.669,-97.0499,367.468,201.999,122.13,384.811,193.043,102.356,135.331,820.696,124.128,157.047,631.531,-35.4393,152.729,499.155,-210.969,199.623,382.747,-283.395,240.484,419.687,-196.174,222.183,232.098
93,0,93.8392,460.958,1105.07,101.204,187.804,1114.53,-104.137,365.897,1186.52,-98.3713,263.124,1172.02,71.4405,518.782,851.836,91.9083,479.587,654.89,25.9653,480.613,489.084,-30.8621,409.394,242.124,-105.803,367.518,202.979,113.142,384.547,192.794,104.941,134.601,823.396,133.061,156.753,635.437,-24.9008,152.301,501.282,-199.191,199.042,382.736,-272.881,239.93,417.362,-178.128,220.959,233.767
94,0,92.584,460.992,1106.89,99.6131,187.851,1116.46,-105.398,366.632,1187.89,-99.9037,263.936,1173.55,67.1965,518.608,851.861,85.0527,479.524,654.888,18.3212,480.471,489.389,-39.418,409.414,242.733,-114.581,367.643,204.119,104.115,384.285,192.581,107.312,133.892,826.424,141.525,156.546,639.775,-14.4608,151.942,503.236,-186.891,198.449,381.74,-261.971,239.337,413.582,-158.774,219.733,234.859
95,0,91.343,461.018,1108.96,98.0155,187.872,1118.65,-106.706,367.265,1189.45,-101.442,264.628,1175.36,63.0477,518.337,852.094,78.0713,479.348,655.097,10.5938,480.292,489.903,-48.0406,409.456,243.506,-123.383,367.843,205.426,95.046,384.032,192.403,109.542,133.206,829.764,149.465,156.41,644.471,-4.15103,151.646,504.973,-174.062,197.852,379.757,-250.587,238.739,408.386,-138.303,218.474,235.411
96,0,90.1343,461.043,1111.24,96.4307,187.876,1121.06,-108.045,367.787,1191.17,-102.966,265.189,1177.41,58.9494,517.978,852.521,70.983,479.074,655.515,2.78682,480.084,490.625,-56.7279,409.52,244.446,-132.205,368.108,206.904,85.9322,383.787,192.254,111.693,132.542,833.396,156.825,156.326,649.446,6.00495,151.402,506.456,-160.692,197.259,376.812,-238.64,238.169,401.841,-116.892,217.143,235.483
97,0,88.9742,461.07,1113.72,94.8778,187.866,1123.66,-109.399,368.19,1193.04,-104.46,265.612,1179.69,54.8532,517.538,853.125,63.8008,478.718,656.134,-5.10009,479.853,491.551,-65.4761,409.599,245.556,-141.046,368.424,208.554,76.7707,383.552,192.129,113.809,131.899,837.299,163.55,156.28,654.616,15.9914,151.2,507.654,-146.756,196.674,372.953,-226.034,237.652,394.04,-94.6997,215.698,235.145
98,0,87.8774,461.099,1116.36,93.3753,187.846,1126.43,-110.753,368.469,1195.05,-105.908,265.895,1182.16,50.7134,517.022,853.891,56.5337,478.295,656.944,-13.0686,479.602,492.67,-74.2797,409.683,246.83,-149.904,368.771,210.375,67.5594,383.322,192.02,115.917,131.274,841.443,169.588,156.253,659.894,25.7995,151.029,508.547,-132.231,196.103,368.253,-212.679,237.208,385.103,-71.8668,214.106,234.473
99,0,86.8565,461.127,1119.12,91.9408,187.817,1129.33,-112.09,368.624,1197.18,-107.295,266.038,1184.79,46.4931,516.429,854.805,49.1893,477.82,657.932,-21.1194,479.332,493.97,-83.1323,409.759,248.262,-158.779,369.124,212.365,58.2958,383.095,191.921,118.022,130.664,845.791,174.891,156.233,665.193,35.4263,150.879,509.122,-117.092,195.549,362.806,-198.49,236.847,375.175,-48.515,212.344,233.546
100,0,85.9221,461.151,1121.97,90.5912,187.779,1132.33,-113.394,368.654,1199.41,-108.607,266.044,1187.55,42.1669,515.76,855.85,41.7758,477.306,659.081,-29.2496,479.039,495.434,-92.0269,409.815,249.841,-167.669,369.459,214.517,48.9781,382.866,191.826,120.108,130.063,850.298,179.419,156.207,670.425,44.8731,150.741,509.377,-101.32,195.012,356.725,-183.402,236.57,364.42,-24.7499,210.408,232.441
101,0,85.0828,461.164,1124.88,89.3426,187.73,1135.4,-114.648,368.564,1201.71,-109.832,265.919,1190.41,37.7234,515.015,857.012,34.3043,476.761,660.372,-37.4518,478.721,497.045,-100.956,409.836,251.556,-176.572,369.75,216.827,39.6038,382.629,191.732,122.142,129.461,854.906,183.144,156.168,675.51,54.1439,150.606,509.322,-84.9068,194.495,350.14,-167.371,236.37,353.025,-0.664347,208.315,231.233
102,0,84.3448,461.162,1127.81,88.2101,187.668,1138.49,-115.836,368.357,1204.08,-110.958,265.671,1193.31,33.1658,514.194,858.274,26.7902,476.193,661.786,-45.7128,478.374,498.784,-109.91,409.81,253.393,-185.485,369.976,219.286,30.1706,382.38,191.633,124.079,128.849,859.55,186.049,156.11,680.368,63.243,150.47,508.972,-67.8593,193.997,343.193,-150.383,236.234,341.189,23.6566,206.103,229.994
103,0,83.7124,461.135,1130.71,87.208,187.59,1141.57,-116.943,368.038,1206.46,-111.975,265.308,1196.23,28.5108,513.302,859.617,19.2546,475.607,663.299,-54.0134,477.994,500.629,-118.882,409.726,255.338,-194.403,370.117,221.887,20.6763,382.115,191.528,125.863,128.211,864.153,188.132,156.03,684.929,72.1735,150.327,508.354,-50.2064,193.52,336.035,-132.458,236.143,329.12,48.1301,203.833,228.793
104,0,83.1879,461.079,1133.56,86.3496,187.492,1144.6,-117.955,367.613,1208.85,-112.872,264.84,1199.11,23.7868,512.345,861.021,11.7252,475.005,664.889,-62.3284,477.577,502.561,-127.862,409.579,257.379,-203.323,370.162,224.62,11.1185,381.833,191.414,127.437,127.533,868.634,189.41,155.931,689.132,80.9347,150.177,507.5,-32.0019,193.064,328.815,-113.657,236.076,317.029,72.6697,201.58,227.697
105,0,82.7719,460.987,1136.31,85.6469,187.371,1147.55,-118.857,367.086,1211.21,-113.641,264.274,1201.93,19.0322,511.331,862.461,4.23612,474.386,666.529,-70.6273,477.121,504.557,-136.84,409.366,259.5,-212.237,370.107,227.475,1.49528,381.534,191.29,128.744,126.796,872.907,189.916,155.816,692.923,89.5207,150.02,506.445,-13.329,192.633,321.684,-94.08,236.012,305.123,97.1795,199.429,226.767
106,0,82.4636,460.854,1138.94,85.1111,187.222,1150.37,-119.638,366.463,1213.51,-114.272,263.618,1204.63,14.2925,510.272,863.911,-3.17191,473.749,668.193,-78.8747,476.626,506.599,-145.807,409.088,261.689,-221.141,369.952,230.443,-8.19463,381.217,191.156,129.735,125.986,876.885,189.701,155.692,696.264,97.9182,149.861,505.23,5.69759,192.232,314.78,-73.8712,235.935,293.597,121.548,197.468,226.059
107,0,82.261,460.674,1141.4,84.7518,187.042,1153.04,-120.286,365.748,1215.71,-114.757,262.877,1207.18,9.61783,509.181,865.344,-10.4525,473.092,669.854,-87.0319,476.094,508.663,-154.752,408.753,263.932,-230.029,369.708,233.514,-17.9516,380.887,191.013,130.372,125.09,880.488,188.835,155.567,699.125,106.106,149.706,503.892,24.9313,191.869,308.227,-53.2164,235.831,282.628,145.645,195.784,225.618
108,0,82.1616,460.446,1143.68,84.5773,186.828,1155.51,-120.793,364.942,1217.78,-115.088,262.056,1209.55,5.06079,508.071,866.731,-17.5542,472.411,671.483,-95.0572,475.528,510.73,-163.668,408.369,266.215,-238.9,369.39,236.677,-27.7749,380.545,190.863,130.633,124.101,883.638,187.403,155.453,701.491,114.054,149.563,502.468,44.1945,191.552,302.127,-32.3403,235.696,272.367,169.318,194.451,225.473
109,0,82.1624,460.167,1145.74,84.5945,186.577,1157.76,-121.151,364.05,1219.69,-115.259,261.16,1211.69,0.674621,506.957,868.042,-24.4218,471.705,673.049,-102.907,474.935,512.779,-172.546,407.951,268.527,-247.753,369.021,239.923,-37.6626,380.195,190.709,130.513,123.02,886.274,185.503,155.361,703.355,121.723,149.443,500.991,63.2812,191.295,296.56,-11.5021,235.532,262.934,192.39,193.528,225.633
110,0,82.2607,459.835,1147.55,84.8084,186.286,1159.76,-121.354,363.072,1221.39,-115.264,260.188,1213.57,-3.48843,505.849,869.248,-30.9974,470.974,674.521,-110.539,474.322,514.788,-181.377,407.514,270.853,-256.592,368.627,243.241,-47.6119,379.84,190.557,130.025,121.86,888.346,183.246,155.304,704.727,129.066,149.358,499.485,81.9627,191.111,291.573,9.0118,235.348,254.415,214.663,193.057,226.079
111,0,82.4542,459.451,1149.11,85.2221,185.953,1161.48,-121.397,362.012,1222.86,-115.098,259.143,1215.18,-7.37809,504.757,870.322,-37.2215,470.219,675.867,-117.907,473.699,516.735,-190.154,407.078,273.183,-265.421,368.237,246.622,-57.6196,379.482,190.41,129.204,120.643,889.824,180.748,155.294,705.622,136.029,149.32,497.969,99.9935,191.017,287.188,28.8962,235.161,246.855,235.922,193.06,226.761
112,0,82.7411,459.012,1150.38,85.8366,185.577,1162.91,-121.28,360.87,1224.07,-114.759,258.025,1216.47,-10.9468,503.688,871.238,-43.034,469.444,677.053,-124.97,473.077,518.6,-198.871,406.662,275.505,-274.248,367.883,250.059,-67.6825,379.124,190.276,128.105,119.405,890.696,178.128,155.345,706.064,142.553,149.343,496.453,117.12,191.029,283.392,47.8373,234.994,240.266,255.938,193.539,227.598
113,0,83.1208,458.52,1151.36,86.6507,185.155,1164.02,-121.002,359.649,1224.98,-114.247,256.836,1217.44,-14.1501,502.647,871.969,-48.3751,468.657,678.046,-131.685,472.468,520.359,-207.517,406.285,277.808,-283.077,367.594,253.545,-77.7978,378.769,190.157,126.803,118.191,890.971,175.503,155.466,706.087,148.577,149.439,494.937,133.089,191.164,280.148,65.524,234.874,234.62,274.477,194.476,228.481
114,0,83.5932,457.974,1152.04,87.6608,184.686,1164.81,-120.564,358.354,1225.57,-113.562,255.575,1218.07,-16.9466,501.637,872.49,-53.1862,467.868,678.812,-138.012,471.885,521.991,-216.083,405.966,280.085,-291.912,367.398,257.077,-87.9642,378.419,190.056,125.389,117.057,890.679,172.984,155.668,705.725,154.04,149.62,493.414,147.66,191.438,277.393,81.66,234.83,229.86,291.312,195.837,229.277
115,0,84.1589,457.373,1152.42,88.8604,184.169,1165.27,-119.972,356.989,1225.83,-112.709,254.245,1218.36,-19.2982,500.658,872.779,-57.4102,467.091,679.318,-143.91,471.342,523.477,-224.554,405.723,282.331,-300.749,367.32,260.657,-98.1815,378.077,189.975,123.968,116.059,889.868,170.667,155.954,705.017,158.885,149.894,491.87,160.61,191.863,275.047,95.9759,234.892,225.899,306.23,197.574,229.844
116,0,84.819,456.716,1152.48,90.2402,183.6,1165.39,-119.231,355.56,1225.72,-111.696,252.851,1218.29,-21.1697,499.709,872.809,-60.9924,466.345,679.534,-149.339,470.85,524.797,-232.911,405.572,284.545,-309.572,367.377,264.292,-108.451,377.746,189.908,122.651,115.254,888.601,168.638,156.327,704.001,163.062,150.266,490.289,171.749,192.45,273.017,108.241,235.083,222.636,319.044,199.625,230.044
117,0,85.5743,456.001,1152.24,91.7882,182.98,1165.18,-118.35,354.078,1225.26,-110.531,251.398,1217.88,-22.5293,498.791,872.56,-63.8808,465.648,679.431,-154.259,470.424,525.936,-241.128,405.526,286.733,-318.353,367.58,267.998,-118.774,377.428,189.849,121.552,114.69,886.953,166.961,156.782,702.715,166.529,150.737,488.651,180.927,193.201,271.208,118.273,235.423,219.957,329.603,201.917,229.757
118,0,86.425,455.226,1151.7,93.4889,182.305,1164.64,-117.34,352.551,1224.43,-109.228,249.894,1217.13,-23.3481,497.905,872.01,-66.0262,465.023,678.987,-158.63,470.073,526.882,-249.169,405.593,288.905,-327.046,367.932,271.797,-129.153,377.125,189.788,120.778,114.404,885.007,165.68,157.309,701.195,169.259,151.303,486.934,188.038,194.114,269.528,125.948,235.924,217.746,337.801,204.372,228.898
119,0,87.3699,454.39,1150.87,95.3241,181.575,1163.8,-116.213,350.993,1223.23,-107.803,248.347,1216.06,-23.601,497.053,871.141,-67.3836,464.493,678.183,-162.407,469.809,527.627,-256.989,405.781,291.081,-335.584,368.425,275.724,-139.589,376.836,189.715,120.421,114.413,882.848,164.819,157.892,699.474,171.235,151.954,485.122,193.028,195.178,267.895,131.204,236.588,215.892,343.584,206.903,227.428
120,0,88.4061,453.49,1149.76,97.2724,180.787,1162.67,-114.986,349.417,1221.69,-106.275,246.77,1214.69,-23.2665,496.239,869.939,-67.9123,464.08,677.008,-165.546,469.639,528.171,-264.531,406.089,293.287,-343.878,369.042,279.821,-150.08,376.557,189.616,120.551,114.712,880.558,164.378,158.507,697.583,172.457,152.676,483.203,195.896,196.376,266.246,134.048,237.406,214.299,346.958,209.424,225.362
121,0,89.5283,452.526,1148.39,99.3095,179.941,1161.26,-113.673,347.84,1219.82,-104.665,245.176,1213.05,-22.3281,495.47,868.399,-67.5772,463.806,675.457,-167.998,469.571,528.517,-271.728,406.515,295.557,-351.819,369.755,284.141,-160.619,376.28,189.483,121.207,115.27,878.21,164.34,159.127,695.547,172.941,153.447,481.17,196.695,197.679,264.536,134.549,238.356,212.886,347.985,211.852,222.765
122,0,90.7284,451.496,1146.77,101.409,179.036,1159.62,-112.295,346.276,1217.64,-102.997,243.58,1211.17,-20.7745,494.753,866.524,-66.3498,463.689,673.536,-169.716,469.608,528.678,-278.501,407.049,297.932,-359.274,370.531,288.742,-171.193,375.993,189.312,122.396,116.034,875.867,164.667,159.719,693.392,172.715,154.242,479.026,195.53,199.052,262.742,132.841,239.407,211.594,346.787,214.109,219.754
123,0,91.9953,450.402,1144.94,103.541,178.07,1157.76,-110.87,344.742,1215.19,-101.296,241.997,1209.08,-18.601,494.098,864.326,-64.2096,463.743,671.26,-170.648,469.754,528.674,-284.761,407.676,300.458,-366.1,371.327,293.687,-181.781,375.681,189.106,124.082,116.928,873.577,165.308,160.245,691.14,171.822,155.033,476.779,192.549,200.456,260.863,129.113,240.519,210.385,343.541,216.131,216.478
124,0,93.3148,449.245,1142.91,105.675,177.045,1155.73,-109.42,343.255,1212.51,-99.5886,240.442,1206.82,-15.8104,493.514,861.83,-61.1457,463.976,668.656,-170.75,470.008,528.531,-290.413,408.378,303.184,-372.141,372.096,299.04,-192.35,375.325,188.882,126.196,117.859,871.373,166.198,160.67,688.812,170.314,155.787,474.446,187.94,201.843,258.917,123.597,241.646,209.244,338.469,217.864,213.105
125,0,94.67,448.029,1140.72,107.78,175.961,1153.56,-107.966,341.829,1209.64,-97.9029,238.933,1204.43,-12.4148,493.009,859.075,-57.1577,464.389,665.757,-169.975,470.369,528.284,-295.36,409.13,306.16,-377.241,372.788,304.856,-202.855,374.906,188.669,128.633,118.726,869.272,167.264,160.955,686.428,168.251,156.472,472.051,181.917,203.166,256.937,116.557,242.738,208.169,331.825,219.277,209.802
126,0,96.0413,446.761,1138.39,109.823,174.82,1151.27,-106.53,340.478,1206.62,-96.2658,237.484,1201.96,-8.43602,492.591,856.109,-52.2576,464.977,662.611,-168.29,470.833,527.969,-299.506,409.905,309.432,-381.253,373.356,311.181,-213.234,374.411,188.512,131.258,119.428,867.277,168.429,161.068,684.006,165.698,157.055,469.62,174.713,204.379,254.964,108.276,243.746,207.173,323.89,220.353,206.72
127,0,97.4072,445.447,1135.95,111.772,173.625,1148.92,-105.132,339.213,1203.5,-94.7039,236.108,1199.44,-3.90752,492.264,852.989,-46.4701,465.727,659.272,-165.666,471.393,527.631,-302.762,410.673,313.042,-384.049,373.753,318.044,-223.405,373.829,188.471,133.92,119.872,865.378,169.611,160.981,681.565,162.719,157.51,467.184,166.568,205.44,253.045,99.0393,244.625,206.278,314.949,221.094,203.978
128,0,98.7452,444.097,1133.44,113.598,172.378,1146.53,-103.794,338.043,1200.33,-93.2425,234.818,1196.92,1.12521,492.026,849.782,-39.8339,466.616,655.803,-162.091,472.041,527.312,-305.051,411.403,317.019,-385.528,373.94,325.449,-233.265,373.164,188.619,136.458,119.98,863.561,170.73,160.674,679.123,159.375,157.811,464.774,157.715,206.314,251.225,89.1235,245.34,205.505,305.279,221.519,201.655
129,0,100.032,442.719,1130.9,115.271,171.085,1144.15,-102.535,336.974,1197.17,-91.9045,233.624,1194.45,6.60412,491.873,846.557,-32.4009,467.618,652.274,-157.565,472.766,527.056,-306.312,412.065,321.383,-385.628,373.885,333.376,-242.687,372.434,189.037,138.716,119.701,861.802,171.704,160.134,676.696,155.723,157.941,462.42,148.373,206.976,249.541,78.7816,245.866,204.875,295.14,221.659,199.787
130,0,101.244,441.326,1128.35,116.766,169.749,1141.8,-101.371,336.009,1194.06,-90.7103,232.533,1192.05,12.459,491.795,843.383,-24.2358,468.698,648.757,-152.104,473.553,526.905,-306.504,412.631,326.136,-384.327,373.564,341.775,-251.519,371.675,189.81,140.551,119.009,860.079,172.458,159.36,674.298,151.809,157.891,460.148,138.741,207.411,248.024,68.2349,246.19,204.401,284.756,221.556,198.366
131,0,102.361,439.927,1125.84,118.062,168.377,1139.51,-100.319,335.149,1191.05,-89.6769,231.551,1189.76,18.6087,491.776,840.329,-15.415,469.819,645.33,-145.744,474.386,526.896,-305.61,413.077,331.264,-381.652,372.965,350.562,-259.581,370.942,191.016,141.844,117.906,858.373,172.919,158.36,671.944,147.669,157.659,457.98,128.986,207.62,246.693,57.6659,246.313,204.089,274.315,221.257,197.352
132,0,103.361,438.533,1123.39,119.14,166.975,1137.33,-99.3904,334.391,1188.19,-88.8178,230.678,1187.62,24.9631,491.798,837.456,-6.02406,470.938,642.067,-138.533,475.244,527.057,-303.633,413.383,336.735,-377.674,372.084,359.625,-266.674,370.306,192.721,142.505,116.425,856.669,173.021,157.154,669.646,143.327,157.252,455.935,119.243,207.611,245.552,47.2151,246.248,203.934,263.96,220.812,196.68
133,0,104.229,437.153,1121.05,119.988,165.55,1135.26,-98.5966,333.73,1185.5,-88.1423,229.914,1185.65,31.4264,491.837,834.818,3.84426,472.015,639.045,-130.538,476.101,527.411,-300.6,413.538,342.496,-372.503,370.93,368.825,-272.579,369.854,194.965,142.479,114.62,854.958,172.704,155.77,667.413,138.797,156.687,454.023,109.612,207.407,244.599,36.9808,246.018,203.922,253.79,220.268,196.27
134,0,104.948,435.797,1118.84,120.598,164.109,1133.34,-97.9447,333.158,1183.05,-87.6557,229.256,1183.88,37.9005,491.87,832.46,14.0932,473.009,636.332,-121.835,476.931,527.972,-296.557,413.536,348.476,-366.285,369.523,377.997,-277.065,369.678,197.761,141.742,112.564,853.242,171.917,154.243,665.256,134.081,155.988,452.253,100.162,207.037,243.82,27.0218,245.657,204.031,243.865,219.67,196.038
135,0,105.509,434.472,1116.79,120.967,162.661,1131.58,-97.4391,332.665,1180.84,-87.3587,228.698,1182.32,44.2898,491.875,830.418,24.625,473.883,633.995,-112.513,477.702,528.746,-291.561,413.379,354.584,-359.191,367.892,386.961,-279.903,369.866,201.086,140.305,110.342,851.526,170.614,152.618,663.184,129.172,155.183,450.628,90.929,206.537,243.194,17.3615,245.201,204.234,234.207,219.056,195.908
136,0,105.903,433.182,1114.92,121.098,161.213,1130,-97.0817,332.242,1178.92,-87.2481,228.231,1181,50.505,491.829,828.719,35.3434,474.603,632.091,-102.667,478.383,529.73,-285.682,413.079,360.713,-351.399,366.081,395.526,-280.875,370.493,204.878,138.203,108.043,849.828,168.763,150.94,661.205,124.056,154.308,449.146,81.9232,205.947,242.698,7.99508,244.689,204.503,224.81,218.457,195.816
137,0,106.128,431.932,1113.27,120.997,159.775,1128.62,-96.8713,331.876,1177.31,-87.3169,227.844,1179.92,56.4681,491.719,827.382,46.1565,475.144,630.672,-92.395,478.939,530.915,-278.995,412.651,366.741,-343.091,364.14,403.495,-279.791,371.606,209.041,135.494,105.757,848.167,166.338,149.26,659.329,118.715,153.399,447.806,73.133,205.307,242.306,-1.10437,244.158,204.809,215.647,217.897,195.711
138,0,106.181,430.725,1111.83,120.676,158.355,1127.44,-96.8047,331.555,1176.01,-87.5541,227.527,1179.09,62.1155,491.532,826.42,56.9786,475.485,629.776,-81.7964,479.341,532.285,-271.571,412.121,372.536,-334.434,362.134,410.68,-276.497,373.218,213.448,132.25,103.564,846.567,163.326,147.627,657.565,113.128,152.493,446.603,64.5311,204.653,241.995,-9.97824,243.641,205.127,206.678,217.391,195.564
139,0,106.068,429.563,1110.64,120.152,156.965,1126.47,-96.876,331.267,1175.05,-87.9458,227.264,1178.52,67.4007,491.265,825.84,67.7313,475.616,629.436,-70.9685,479.561,533.821,-263.482,411.517,377.959,-325.571,360.134,416.899,-270.893,375.299,217.952,128.552,101.537,845.056,159.723,146.087,655.924,107.277,151.628,445.534,56.079,204.019,241.744,-18.6761,243.164,205.437,197.856,216.947,195.359
140,0,105.794,428.448,1109.7,119.443,155.612,1125.72,-97.0778,331.002,1174.44,-88.4756,227.044,1178.22,72.2966,490.921,825.646,78.3442,475.532,629.671,-60.0045,479.578,535.503,-254.789,410.874,382.866,-316.615,358.218,421.991,-262.942,377.772,222.392,124.485,99.7331,843.659,155.537,144.684,654.418,101.143,150.835,444.596,47.7332,203.432,241.537,-27.2501,242.747,205.726,189.134,216.57,195.095
141,0,105.369,427.383,1109,118.569,154.309,1125.18,-97.4009,330.748,1174.17,-89.1248,226.851,1178.17,76.7952,490.507,825.841,88.7543,475.237,630.49,-48.9922,479.378,537.305,-245.548,410.227,387.119,-307.642,356.465,425.816,-252.672,380.521,226.609,120.133,98.1955,842.401,150.783,143.453,653.057,94.7133,150.144,443.788,39.4485,202.914,241.366,-35.7502,242.402,205.99,180.467,216.256,194.78
142,0,104.805,426.368,1108.56,117.554,153.064,1124.85,-97.8349,330.496,1174.26,-89.8737,226.673,1178.39,80.9071,490.038,826.422,98.9055,474.742,631.892,-38.0131,478.96,539.202,-235.804,409.612,390.589,-298.686,354.95,428.26,-240.181,383.398,230.452,115.575,96.9533,841.305,145.487,142.424,651.854,87.979,149.578,443.11,31.1823,202.479,241.225,-44.2215,242.133,206.23,171.817,216.001,194.432
143,0,104.116,425.409,1108.35,116.421,151.889,1124.73,-98.3686,330.239,1174.68,-90.7016,226.496,1178.86,84.6593,489.53,827.391,108.746,474.064,633.862,-27.1415,478.33,541.169,-225.592,409.063,393.158,-289.744,353.741,429.24,-225.628,386.238,233.795,110.881,96.0216,840.391,139.681,141.617,650.822,80.9378,149.154,442.564,22.8968,202.135,241.117,-52.7015,241.941,206.457,163.151,215.796,194.068
144,0,103.318,424.508,1108.38,115.194,150.793,1124.81,-98.9902,329.969,1175.44,-91.5881,226.309,1179.58,88.0921,489.003,828.743,118.229,473.225,636.376,-16.4448,477.507,543.177,-214.94,408.608,394.73,-280.776,352.887,428.699,-209.223,388.88,236.535,106.114,95.4027,839.673,133.401,141.043,649.969,73.5932,148.881,442.156,14.5607,201.884,241.05,-61.22,241.819,206.687,154.445,215.634,193.708
145,0,102.427,423.673,1108.63,113.897,149.785,1125.07,-99.6875,329.682,1176.53,-92.513,226.102,1180.55,91.2553,488.476,830.475,127.306,472.253,639.397,-5.9832,476.522,545.194,-203.868,408.272,395.232,-271.71,352.42,426.611,-191.217,391.182,238.605,101.323,95.0881,839.164,126.69,140.705,649.306,65.9547,148.764,441.89,6.15028,201.727,241.033,-69.7983,241.762,206.939,145.682,215.505,193.367
146,0,101.46,422.909,1109.07,112.55,148.876,1125.52,-100.448,329.376,1177.92,-93.4574,225.867,1181.75,94.204,487.968,832.583,135.931,471.176,642.878,4.18966,475.411,547.186,-192.386,408.069,394.616,-262.45,352.345,422.982,-171.877,393.043,239.972,96.5455,95.0602,838.868,119.593,140.596,648.84,58.0375,148.799,441.774,-2.35078,201.657,241.083,-78.4501,241.761,207.239,136.851,215.402,193.057
147,0,100.435,422.224,1109.7,111.174,148.072,1126.12,-101.261,329.049,1179.61,-94.4038,225.599,1183.17,96.9938,487.492,835.058,144.056,470.026,646.764,14.0268,474.219,549.114,-180.501,408.005,392.865,-252.883,352.643,417.842,-151.476,394.416,240.637,91.8028,95.294,838.787,112.154,140.704,648.577,49.8616,148.979,441.815,-10.9513,201.669,241.215,-87.1826,241.809,207.611,127.943,215.318,192.787
148,0,99.3669,421.625,1110.49,109.788,147.379,1126.87,-102.112,328.702,1181.56,-95.3368,225.295,1184.8,99.6766,487.061,837.889,151.63,468.832,650.988,23.4873,472.992,550.933,-168.211,408.08,389.992,-242.888,353.268,411.251,-130.27,395.307,240.634,87.1022,95.759,838.915,104.42,141.007,648.519,41.4516,149.291,442.021,-19.6538,201.755,241.447,-95.9971,241.9,208.083,118.956,215.25,192.558
149,0,98.2721,421.119,1111.41,108.406,146.803,1127.76,-102.992,328.338,1183.75,-96.243,224.957,1186.62,102.297,486.682,841.063,158.6,467.626,655.479,32.5363,471.777,552.598,-155.509,408.282,386.037,-232.34,354.154,403.293,-108.487,395.783,240.022,82.4363,96.4214,839.244,96.4368,141.48,648.667,32.8361,149.718,442.397,-28.4548,201.905,241.798,-104.891,242.029,208.68,109.888,215.194,192.369
150,0,97.1647,420.712,1112.44,107.042,146.346,1128.76,-103.889,327.962,1186.16,-97.1113,224.587,1188.61,104.889,486.357,844.557,164.911,466.436,660.157,41.1449,470.618,554.058,-142.381,408.594,381.07,-221.123,355.221,394.075,-86.3203,395.955,238.886,77.7859,97.2453,839.758,88.251,142.094,649.018,24.0467,150.24,442.951,-37.3463,202.111,242.282,-113.857,242.193,209.427,100.74,215.148,192.213
151,0,96.0571,420.41,1113.56,105.708,146.01,1129.85,-104.791,327.58,1188.76,-97.9329,224.191,1190.77,107.471,486.086,848.346,170.511,465.289,664.939,49.2899,469.551,555.265,-128.811,408.995,375.187,-209.131,356.381,383.73,-63.9167,395.967,237.327,73.1234,98.1947,840.44,79.9074,142.819,649.568,15.1172,150.836,443.683,-46.3171,202.363,242.915,-122.887,242.391,210.345,91.5132,215.112,192.084
152,0,94.9604,420.214,1114.74,104.412,145.793,1131.02,-105.689,327.201,1191.5,-98.7014,223.779,1193.05,110.051,485.863,852.391,175.347,464.208,669.741,56.9535,468.606,556.173,-114.779,409.461,368.507,-196.277,357.548,372.409,-41.3822,395.972,235.457,68.4171,99.235,841.272,71.4506,143.621,650.308,6.08341,151.483,444.597,-55.3529,202.653,243.71,-131.971,242.62,211.453,82.2085,215.085,191.97
153,0,93.8841,420.126,1115.96,103.162,145.693,1132.24,-106.573,326.836,1194.37,-99.4123,223.364,1195.45,112.617,485.685,856.65,179.373,463.213,674.478,64.1241,467.801,556.742,-100.265,409.967,361.167,-182.495,358.646,360.287,-18.7842,396.114,233.394,63.6375,100.334,842.233,62.9248,144.47,651.228,-3.01787,152.16,445.688,-64.4382,202.97,244.673,-141.098,242.879,212.767,72.8279,215.067,191.861
154,0,92.8365,420.145,1117.2,101.964,145.704,1133.51,-107.431,326.496,1197.32,-100.063,222.959,1197.93,115.142,485.543,861.067,182.549,462.32,679.066,70.7952,467.149,556.943,-85.2541,410.491,353.32,-167.746,359.618,347.553,3.83997,396.507,231.257,58.7623,101.463,843.303,54.374,145.338,652.317,-12.1495,152.844,446.954,-73.5564,203.305,245.811,-150.256,243.162,214.298,63.3735,215.057,191.747
155,0,91.8244,420.265,1118.44,100.823,145.822,1134.81,-108.256,326.193,1200.31,-100.652,222.581,1200.46,117.587,485.435,865.578,184.848,461.542,683.43,76.9661,466.649,556.757,-69.7386,411.014,345.131,-152.021,360.425,334.413,26.4727,397.219,229.159,53.7817,102.598,844.464,45.8418,146.197,653.559,-21.2746,153.516,448.385,-82.6913,203.646,247.124,-159.433,243.464,216.053,53.8475,215.053,191.621
156,0,90.8543,420.481,1119.67,99.7429,146.037,1136.11,-109.037,325.942,1203.31,-101.179,222.248,1203.02,119.896,485.359,870.109,186.254,460.887,687.497,82.6413,466.296,556.181,-53.7248,411.522,336.769,-135.342,361.055,321.081,49.1042,398.267,227.209,48.7024,103.719,845.699,37.372,147.027,654.939,-30.357,154.156,449.97,-91.8268,203.98,248.611,-168.618,243.774,218.037,44.2524,215.053,191.477
157,0,89.9319,420.785,1120.87,98.7275,146.342,1137.41,-109.764,325.757,1206.27,-101.646,221.977,1205.58,122.003,485.318,874.576,186.77,460.362,691.205,87.83,466.079,555.224,-37.2379,412.007,328.404,-117.766,361.516,307.777,71.7207,399.611,225.504,43.5489,104.81,846.994,29.0079,147.809,656.438,-39.3623,154.747,451.695,-100.948,204.296,250.266,-177.802,244.08,220.247,34.5911,215.052,191.31
158,0,89.0631,421.167,1122.03,97.781,146.728,1138.68,-110.431,325.653,1209.16,-102.053,221.789,1208.1,123.835,485.322,878.893,186.414,459.966,694.502,92.5461,465.982,553.911,-20.3272,412.463,320.202,-99.3865,361.835,294.721,94.2936,401.164,224.128,38.3637,105.861,848.333,20.7927,148.531,658.036,-48.2575,155.277,453.542,-110.043,204.58,252.079,-186.975,244.365,222.677,24.867,215.046,191.12
159,0,88.2541,421.619,1123.15,96.9078,147.186,1139.92,-111.026,325.645,1211.94,-102.401,221.701,1210.54,125.312,485.386,882.966,185.224,459.7,697.348,96.8069,465.988,552.279,-3.07112,412.89,312.316,-80.3353,362.052,282.12,116.771,402.803,223.154,33.2047,106.866,849.704,12.7691,149.185,659.71,-57.0123,155.734,455.492,-119.099,204.817,254.038,-196.129,244.611,225.316,15.0841,215.03,190.91
160,0,87.5114,422.129,1124.21,96.1127,147.708,1141.12,-111.544,325.746,1214.57,-102.691,221.73,1212.88,126.355,485.531,886.704,183.257,459.559,699.716,100.632,466.082,550.372,14.4201,413.29,304.884,-60.7814,362.214,270.167,139.07,404.389,222.635,28.1407,107.823,851.09,4.97918,149.766,661.436,-65.5986,156.108,457.521,-128.109,204.993,256.127,-205.258,244.797,228.15,5.247,214.998,190.683
161,0,86.8426,422.689,1125.21,95.401,148.288,1142.25,-111.975,325.968,1217.01,-102.925,221.891,1215.09,126.889,485.779,890.018,180.588,459.536,701.589,104.044,466.247,548.242,32.0026,413.666,298.018,-40.9314,362.368,259.028,161.073,405.781,222.605,23.2465,108.733,852.477,-2.53585,150.277,663.187,-73.9912,156.396,459.604,-137.066,205.095,258.329,-214.358,244.902,231.159,-4.63948,214.945,190.446
162,0,86.2556,423.291,1126.14,94.7788,148.918,1143.31,-112.314,326.323,1219.24,-103.101,222.197,1217.11,126.845,486.158,892.83,177.31,459.624,702.966,107.064,466.471,545.943,49.4996,414.021,291.806,-21.0268,362.554,248.836,182.628,406.862,223.079,18.5969,109.6,853.845,-9.73581,150.722,664.934,-82.1672,156.593,461.715,-145.966,205.11,260.625,-223.427,244.905,234.32,-14.5704,214.867,190.207
163,0,85.7593,423.93,1127,94.252,149.594,1144.29,-112.555,326.817,1221.22,-103.219,222.656,1218.94,126.173,486.689,895.07,173.53,459.814,703.857,109.712,466.74,543.525,66.7043,414.358,286.299,-1.33973,362.8,239.689,203.546,407.545,224.042,14.2609,110.433,855.174,-16.5817,151.108,666.646,-90.1064,156.701,463.825,-154.809,205.027,262.993,-232.463,244.786,237.609,-24.5414,214.758,189.973
164,0,85.3627,424.601,1127.77,93.827,150.315,1145.16,-112.693,327.457,1222.92,-103.277,223.274,1220.53,124.839,487.392,896.687,169.367,460.095,704.28,112.007,467.046,541.037,83.3857,414.676,281.517,17.8334,363.123,231.64,223.609,407.791,225.451,10.2973,111.241,856.44,-23.0358,151.447,668.29,-97.7907,156.722,465.908,-163.595,204.838,265.414,-241.469,244.529,240.998,-34.5486,214.615,189.75
165,0,85.0748,425.304,1128.44,93.5096,151.079,1145.93,-112.727,328.245,1224.32,-103.276,224.053,1221.85,122.837,488.279,897.649,164.947,460.457,704.267,113.963,467.38,538.517,99.2964,414.974,277.444,36.1806,363.524,224.701,242.575,407.607,227.232,6.7514,112.035,857.617,-29.0617,151.749,669.83,-105.204,156.66,467.935,-172.327,204.538,267.866,-250.447,244.119,244.462,-44.5902,214.435,189.544
166,0,84.9042,426.04,1129.02,93.3048,151.888,1146.57,-112.654,329.18,1225.4,-103.212,224.99,1222.89,120.189,489.349,897.946,160.399,460.891,703.853,115.59,467.733,535.996,114.182,415.249,274.032,53.3849,363.991,218.84,260.188,407.047,229.274,3.65355,112.827,858.678,-34.6244,152.026,671.229,-112.329,156.524,469.879,-181.006,204.124,270.33,-259.4,243.549,247.976,-54.6661,214.215,189.357
167,0,84.8578,426.814,1129.47,93.2167,152.744,1147.07,-112.476,330.256,1226.15,-103.085,226.079,1223.62,116.951,490.59,897.591,155.853,461.387,703.082,116.894,468.1,533.496,127.793,415.493,271.204,69.1368,364.501,213.992,276.189,406.201,231.438,1.01948,113.629,859.594,-39.69,152.291,672.45,-119.153,156.321,471.714,-189.634,203.597,272.789,-268.33,242.817,251.519,-64.7791,213.954,189.188
168,0,84.9413,427.631,1129.79,93.2472,153.65,1147.42,-112.198,331.465,1226.55,-102.893,227.308,1224.03,113.212,491.978,896.619,151.432,461.939,702.001,117.878,468.473,531.03,139.895,415.7,268.862,83.1477,365.024,210.061,290.334,405.186,233.555,-1.14807,114.453,860.334,-44.226,152.554,673.455,-125.659,156.06,473.418,-198.211,202.964,275.229,-277.239,241.923,255.076,-74.9342,213.652,189.03
169,0,85.1572,428.501,1129.96,93.3962,154.612,1147.6,-111.824,332.796,1226.61,-102.637,228.663,1224.1,109.097,493.477,895.092,147.25,462.54,700.658,118.541,468.847,528.605,150.283,415.861,266.896,95.1637,365.526,206.93,302.401,404.127,235.442,-2.8564,115.309,860.867,-48.2005,152.824,674.205,-131.829,155.753,474.972,-206.732,202.231,277.641,-286.122,240.878,258.638,-85.1392,213.308,188.875
170,0,85.5052,429.431,1129.96,93.6611,155.636,1147.6,-111.362,334.233,1226.33,-102.318,230.127,1223.83,104.759,495.044,893.086,143.405,463.186,699.1,118.882,469.217,526.22,158.793,415.968,265.189,104.979,365.974,204.473,312.212,403.146,236.911,-4.11937,116.207,861.165,-51.583,153.106,674.666,-137.644,155.408,476.36,-215.189,201.413,280.019,-294.969,239.697,262.208,-95.4028,212.926,188.711
171,0,85.9813,430.43,1129.79,94.0362,156.724,1147.4,-110.824,335.76,1225.7,-101.939,231.682,1223.22,100.377,496.63,890.7,139.98,463.874,697.375,118.901,469.58,523.873,165.305,416.012,263.634,112.447,366.337,202.561,319.646,402.345,237.79,-4.95365,117.152,861.197,-54.3437,153.403,674.805,-143.082,155.036,477.571,-223.565,200.524,282.366,-303.762,238.401,265.796,-105.733,212.509,188.523
172,0,86.5776,431.506,1129.41,94.5128,157.883,1147.01,-110.223,337.358,1224.75,-101.504,233.304,1222.27,96.1405,498.19,888.041,137.036,464.604,695.527,118.604,469.936,521.564,169.757,415.986,262.135,117.49,366.594,201.077,324.646,401.8,237.936,-5.37537,118.149,860.938,-56.4538,153.715,674.593,-148.117,154.646,478.6,-231.834,199.582,284.69,-312.471,237.018,269.428,-116.136,212.067,188.297
173,0,87.2817,432.667,1128.82,95.0789,159.114,1146.4,-109.572,339.006,1223.5,-101.022,234.975,1221,92.2444,499.684,885.223,134.615,465.376,693.594,117.998,470.286,519.292,172.145,415.888,260.619,120.103,366.729,199.915,327.231,401.551,237.257,-5.39733,119.196,860.366,-57.8862,154.037,674.008,-152.719,154.245,479.448,-239.964,198.607,287.008,-321.054,235.579,273.138,-126.611,211.611,188.023
174,0,88.0775,433.916,1128.02,95.7194,160.42,1145.59,-108.888,340.684,1221.96,-100.501,236.671,1219.41,88.8701,501.081,882.361,132.734,466.19,691.613,117.102,470.635,517.06,172.525,415.715,259.039,120.356,366.738,198.99,327.497,401.602,235.719,-5.0273,120.291,859.462,-58.6156,154.363,673.036,-156.854,153.84,480.119,-247.91,197.619,289.344,-329.455,234.121,276.972,-137.149,211.156,187.696
175,0,88.9448,435.255,1126.99,96.4164,161.799,1144.56,-108.189,342.372,1220.17,-99.9517,238.374,1217.53,86.1735,502.366,879.562,131.39,467.048,689.613,115.939,470.991,514.877,171.005,415.469,257.373,118.387,366.626,198.238,325.611,401.925,233.358,-4.26732,121.425,858.218,-58.6192,154.683,671.669,-160.485,153.435,480.626,-255.618,196.641,291.727,-337.601,232.686,280.985,-147.725,210.723,187.32
176,0,89.8601,436.681,1125.73,97.1494,163.247,1143.32,-107.492,344.051,1218.16,-99.3882,240.066,1215.39,84.2712,503.54,876.923,130.557,467.949,687.619,114.539,471.364,512.755,167.745,415.157,255.628,114.397,366.408,197.614,321.801,402.465,230.275,-3.11423,122.588,856.632,-57.8781,154.986,669.911,-163.573,153.033,480.987,-263.024,195.693,294.195,-345.407,231.315,285.239,-158.301,210.333,186.912
177,0,90.7974,438.19,1124.26,97.8962,164.76,1141.88,-106.815,345.706,1215.97,-98.8253,241.733,1213.02,83.2303,504.616,874.518,130.191,468.894,685.65,112.937,471.764,510.709,162.942,414.788,253.83,108.636,366.105,197.09,316.346,403.149,226.628,-1.5612,123.765,854.712,-56.3782,155.259,667.775,-166.073,152.635,481.224,-270.056,194.795,296.788,-352.773,230.053,289.799,-168.82,210.013,186.5
178,0,91.7287,439.772,1122.57,98.6329,166.329,1140.26,-106.175,347.323,1213.63,-98.2796,243.364,1210.45,83.0609,505.619,872.401,130.233,469.878,683.721,111.168,472.204,508.756,156.818,414.374,252.021,101.386,365.743,196.654,309.547,403.897,222.613,0.399799,124.939,852.478,-54.1111,155.488,665.288,-167.944,152.242,481.363,-276.634,193.966,299.551,-359.591,228.941,294.729,-179.206,209.787,186.13
179,0,92.6253,441.414,1120.7,99.3353,167.943,1138.48,-105.589,348.893,1211.18,-97.7684,244.95,1207.72,83.7141,506.581,870.601,130.605,470.897,681.842,109.266,472.693,506.912,149.612,413.93,250.254,92.9464,365.352,196.3,301.713,404.631,218.445,2.7749,126.093,849.963,-51.076,155.662,662.485,-169.144,151.85,481.435,-282.675,193.22,302.526,-365.744,228.019,300.086,-189.365,209.677,185.859
180,0,93.4586,443.101,1118.66,99.9789,169.589,1136.56,-105.071,350.409,1208.67,-97.3096,246.49,1204.87,85.0852,507.537,869.116,131.224,471.944,680.016,107.257,473.239,505.19,141.562,413.475,248.578,83.6136,364.96,196.024,293.137,405.286,214.335,5.56509,127.208,847.211,-47.28,155.771,659.413,-169.632,151.459,481.473,-288.095,192.571,305.752,-371.118,227.32,305.916,-199.188,209.701,185.758
181,0,94.2014,444.813,1116.5,100.54,171.254,1134.52,-104.633,351.868,1206.14,-96.9209,247.983,1201.94,87.0211,508.518,867.92,131.993,473.009,678.247,105.159,473.847,503.596,132.895,413.024,247.042,73.6677,364.591,195.827,284.081,405.812,210.471,8.76295,128.268,844.277,-42.7395,155.806,656.13,-169.373,151.066,481.511,-292.81,192.028,309.265,-375.603,226.87,312.247,-208.556,209.868,185.9
182,0,94.8282,446.532,1114.23,100.998,172.921,1132.41,-104.286,353.272,1203.62,-96.6192,249.434,1198.98,89.3328,509.549,866.966,132.816,474.081,676.533,102.973,474.515,502.132,123.818,412.594,245.679,63.3583,364.265,195.703,274.759,406.18,206.996,12.3501,129.258,841.226,-37.4802,155.764,652.702,-168.338,150.669,481.581,-296.743,191.596,313.089,-379.099,226.687,319.087,-217.347,210.176,186.364
183,0,95.3169,448.236,1111.92,101.331,174.575,1130.26,-104.038,354.625,1201.16,-96.4202,250.848,1196.03,91.8105,510.646,866.186,133.592,475.147,674.869,100.689,475.238,500.793,114.507,412.198,244.512,52.8948,363.995,195.645,265.338,406.38,204.007,16.2953,130.168,838.13,-31.537,155.645,649.203,-166.506,150.267,481.718,-299.821,191.277,317.236,-381.524,226.775,326.42,-225.439,210.612,187.219
184,0,95.6487,449.905,1109.59,101.524,176.199,1128.11,-103.893,355.933,1198.78,-96.3378,252.236,1193.12,94.2395,511.814,865.505,134.22,476.193,673.251,98.2798,476.005,499.57,105.107,411.846,243.547,42.4421,363.785,195.643,255.929,406.421,201.546,20.5541,130.989,835.064,-24.954,155.453,645.712,-163.863,149.859,481.952,-301.986,191.067,321.707,-382.818,227.128,334.202,-232.721,211.153,188.522
185,0,95.809,451.52,1107.3,101.562,177.779,1126,-103.857,357.207,1196.54,-96.3835,253.606,1190.31,96.4166,513.049,864.843,134.605,477.208,671.674,95.7062,476.801,498.445,95.7265,411.545,242.775,32.1182,363.636,195.682,246.598,406.324,199.609,25.0691,131.718,832.104,-17.7828,155.197,642.31,-160.409,149.447,482.31,-303.188,190.963,326.485,-382.948,227.725,342.364,-239.095,211.763,190.309
186,0,95.7875,453.062,1105.1,101.435,179.3,1123.98,-103.928,358.455,1194.44,-96.5664,254.97,1187.64,98.1645,514.339,864.129,134.658,478.179,670.133,92.9182,477.607,497.403,86.4408,411.296,242.179,21.9977,363.54,195.748,237.375,406.119,198.151,29.7726,132.356,829.321,-10.0815,154.889,639.08,-156.151,149.034,482.816,-303.393,190.955,331.537,-381.909,228.536,350.81,-244.478,212.401,192.59
187,0,95.5785,454.518,1103.03,101.136,180.749,1122.07,-104.107,359.688,1192.53,-96.8924,256.336,1185.13,99.3417,515.665,863.302,134.299,479.097,668.624,89.8601,478.403,496.426,77.2934,411.099,241.73,12.1163,363.484,195.826,228.257,405.839,197.102,34.5895,132.906,826.784,-1.91285,154.546,636.102,-151.109,148.627,483.488,-302.582,191.032,336.816,-379.722,229.518,359.419,-248.805,213.022,195.346
188,0,95.1806,455.875,1101.13,100.661,182.118,1120.32,-104.39,360.917,1190.82,-97.3647,257.712,1182.82,99.8502,517.005,862.325,133.459,479.953,667.148,86.475,479.168,495.499,68.3017,410.947,241.399,2.4782,363.455,195.906,219.227,405.518,196.376,39.4417,133.373,824.548,6.65736,154.185,633.452,-145.316,148.231,484.34,-300.749,191.182,342.257,-376.438,230.622,368.054,-252.023,213.584,198.529
189,0,94.5965,457.125,1099.45,100.012,183.398,1118.77,-104.775,362.148,1189.33,-97.9831,259.104,1180.74,99.6371,518.336,861.179,132.079,480.74,665.706,82.7096,479.884,494.61,59.4615,410.835,241.154,-6.93569,363.438,195.98,210.259,405.183,195.887,44.2531,133.765,822.662,15.5622,153.826,631.2,-138.812,147.856,485.381,-297.903,191.39,347.781,-372.128,231.791,376.562,-254.087,214.051,202.063
190,0,93.833,458.264,1098.01,99.1927,184.583,1117.45,-105.257,363.389,1188.08,-98.7448,260.514,1178.93,98.6928,519.636,859.873,130.119,481.456,664.304,78.5187,480.534,493.754,50.7537,410.752,240.967,-16.1597,363.421,196.045,201.323,404.858,195.553,48.9538,134.088,821.161,24.735,153.489,629.405,-131.651,147.511,486.613,-294.066,191.642,353.299,-366.885,232.97,384.78,-254.958,214.396,205.851
191,0,92.8998,459.292,1096.85,98.2093,185.672,1116.39,-105.83,364.642,1187.08,-99.6438,261.941,1177.39,97.045,520.882,858.437,127.548,482.099,662.951,73.8681,481.106,492.932,42.1488,410.691,240.817,-25.2359,363.393,196.101,192.395,404.557,195.309,53.4855,134.35,820.07,34.1105,153.194,628.121,-123.891,147.208,488.032,-289.271,191.925,358.711,-360.811,234.107,392.545,-254.591,214.605,209.779
192,0,91.81,460.211,1096,97.072,186.664,1115.6,-106.49,365.909,1186.33,-100.672,263.38,1176.16,94.7509,522.057,856.92,124.354,482.67,661.659,68.7374,481.592,492.149,33.6127,410.644,240.69,-34.2078,363.346,196.154,183.456,404.289,195.103,57.8045,134.554,819.405,43.6257,152.955,627.386,-115.6,146.956,489.629,-283.561,192.225,363.912,-354.014,235.153,399.695,-252.935,214.674,213.728
193,0,90.579,461.026,1095.46,95.7933,187.561,1115.11,-107.231,367.186,1185.83,-101.819,264.825,1175.24,91.8871,523.144,855.384,120.538,483.169,660.443,63.1201,481.988,491.417,25.1099,410.602,240.577,-43.116,363.277,196.216,174.496,404.055,194.901,61.8843,134.705,819.172,53.2199,152.788,627.23,-106.85,146.765,491.389,-276.988,192.53,368.793,-346.601,236.071,406.075,-249.927,214.613,217.578
194,0,89.2241,461.746,1095.25,94.3877,188.368,1114.93,-108.049,368.468,1185.6,-103.071,266.263,1174.64,88.54,524.128,853.897,116.111,483.6,659.317,57.0233,482.297,490.75,16.607,410.562,240.479,-51.9944,363.187,196.298,165.506,403.852,194.686,65.7168,134.806,819.372,62.8349,152.702,627.669,-97.7163,146.643,493.289,-269.605,192.83,373.245,-338.67,236.835,411.542,-245.498,214.435,221.222
195,0,87.7642,462.38,1095.37,92.8713,189.088,1115.07,-108.938,369.746,1185.62,-104.417,267.681,1174.38,84.7973,524.996,852.527,111.101,483.968,658.299,50.4663,482.525,490.166,8.07504,410.521,240.404,-60.8693,363.077,196.415,156.486,403.674,194.449,69.3111,134.857,819.999,72.4142,152.704,628.707,-88.2743,146.597,495.302,-261.469,193.116,377.164,-330.306,237.429,415.97,-239.569,214.161,224.565
196,0,86.2193,462.937,1095.81,91.2618,189.73,1115.51,-109.893,371.009,1185.89,-105.839,269.064,1174.43,80.7404,525.739,851.336,105.54,484.276,657.406,43.4777,482.679,489.685,-0.509938,410.478,240.363,-69.7589,362.956,196.583,147.435,403.514,194.194,72.692,134.859,821.045,81.9024,152.795,630.337,-78.5989,146.629,497.396,-252.637,193.381,380.452,-321.575,237.853,419.248,-232.064,213.807,227.535
197,0,84.6103,463.429,1096.56,89.578,190.299,1116.27,-110.91,372.242,1186.4,-107.324,270.394,1174.82,76.4396,526.345,850.375,99.4709,484.531,656.652,36.0931,482.771,489.324,-9.1658,410.435,240.37,-78.6739,362.829,196.818,138.354,403.366,193.926,75.8962,134.813,822.499,91.2444,152.974,632.538,-68.7615,146.74,499.532,-243.16,193.618,383.022,-312.522,238.117,421.286,-222.915,213.391,230.079
198,0,82.9584,463.865,1097.62,87.8391,190.802,1117.33,-111.984,373.432,1187.14,-108.855,271.654,1175.52,71.9516,526.807,849.682,92.9385,484.737,656.052,28.3517,482.813,489.102,-17.9046,410.396,240.442,-87.619,362.706,197.138,129.242,403.224,193.655,78.9681,134.72,824.351,100.385,153.236,635.28,-58.8278,146.929,501.669,-233.083,193.825,384.797,-303.167,238.24,422.013,-212.073,212.921,232.17
199,0,81.285,464.254,1098.95,86.065,191.247,1118.67,-113.109,374.562,1188.1,-110.416,272.828,1176.52,67.3182,527.118,849.277,85.9916,484.9,655.619,20.2944,482.816,489.033,-26.7326,410.363,240.597,-96.5951,362.595,197.556,120.097,403.084,193.387,81.9545,134.584,826.586,109.267,153.572,638.522,-48.8569,147.191,503.762,-222.442,193.998,385.716,-293.508,238.247,421.384,-199.515,212.402,233.798
200,0,79.6116,464.603,1100.54,84.2759,191.639,1120.27,-114.279,375.617,1189.27,-111.992,273.898,1177.8,62.5672,527.276,849.168,78.6795,485.024,655.36,11.9614,482.79,489.13,-35.6516,410.341,240.848,-105.601,362.506,198.087,110.918,402.944,193.129,84.9002,134.408,829.191,117.833,153.973,642.212,-38.899,147.517,505.762,-211.263,194.136,385.735,-283.518,238.17,419.37,-185.25,211.831,234.971
201,0,77.959,464.918,1102.36,82.4917,191.984,1122.12,-115.49,376.582,1190.63,-113.567,274.849,1179.36,57.7147,527.276,849.346,71.0506,485.114,655.282,3.39122,482.746,489.4,-44.6585,410.333,241.208,-114.633,362.444,198.744,101.702,402.806,192.885,87.8429,134.199,832.147,126.024,154.427,646.29,-28.9951,147.899,507.622,-199.559,194.238,384.827,-273.15,238.041,415.97,-169.329,211.199,235.711
202,0,76.3476,465.202,1104.38,80.7325,192.286,1124.18,-116.732,377.441,1192.16,-115.125,275.671,1181.15,52.7673,527.122,849.792,63.1518,485.174,655.389,-5.38026,482.687,489.85,-53.7469,410.342,241.688,-123.69,362.416,199.539,92.4452,402.671,192.656,90.8094,133.964,835.435,133.78,154.923,650.688,-19.176,148.327,509.295,-187.33,194.307,382.983,-262.337,237.888,411.204,-151.838,210.496,236.047
203,0,74.7969,465.459,1106.57,79.0176,192.548,1126.43,-117.999,378.181,1193.84,-116.654,276.35,1183.16,47.726,526.815,850.477,55.0279,485.205,655.68,-14.3194,482.617,490.479,-62.9076,410.367,242.294,-132.771,362.423,200.481,83.1459,402.541,192.442,93.8132,133.711,839.029,141.04,155.449,655.333,-9.46278,148.788,510.736,-174.564,194.343,380.217,-251,237.739,405.116,-132.9,209.712,236.017
204,0,73.3254,465.687,1108.89,77.3664,192.772,1128.84,-119.281,378.79,1195.66,-118.138,276.881,1185.35,42.589,526.362,851.366,46.7219,485.208,656.151,-23.3944,482.537,491.286,-72.1291,410.408,243.03,-141.875,362.466,201.579,73.8032,402.419,192.242,96.8524,133.45,842.896,147.746,155.995,660.145,0.132892,149.271,511.906,-161.24,194.35,376.561,-239.051,237.613,397.777,-112.665,208.838,235.661
205,0,71.9498,465.886,1111.33,75.7971,192.96,1131.37,-120.568,379.259,1197.6,-119.564,277.258,1187.7,37.3549,525.773,852.421,38.2753,485.184,656.797,-32.5746,482.442,492.267,-81.3981,410.461,243.896,-151.004,362.539,202.841,64.4172,402.306,192.051,99.9094,133.189,846.997,153.84,156.551,665.042,9.60742,149.766,512.773,-147.33,194.333,372.068,-226.396,237.524,389.279,-91.3028,207.87,235.022
206,0,70.6854,466.053,1113.84,74.3277,193.112,1134,-121.85,379.579,1199.63,-120.92,277.476,1190.16,32.0262,525.06,853.604,29.7289,485.131,657.608,-41.8294,482.328,493.412,-90.7008,410.519,244.892,-160.157,362.637,204.271,54.9886,402.204,191.868,102.952,132.935,851.284,159.271,157.11,669.94,18.9636,150.262,513.309,-132.8,194.296,366.811,-212.948,237.48,379.742,-68.9917,206.814,234.147
207,0,69.5456,466.186,1116.39,72.9752,193.227,1136.68,-123.113,379.744,1201.74,-122.193,277.536,1192.71,26.6112,524.237,854.876,21.1235,485.044,658.571,-51.1275,482.187,494.713,-100.023,410.574,246.013,-169.336,362.749,205.875,45.5184,402.111,191.691,105.935,132.692,855.699,163.993,157.664,674.755,28.2083,150.751,513.501,-117.62,194.246,360.882,-198.627,237.48,369.306,-45.9083,205.684,233.084
208,0,68.5414,466.281,1118.96,71.7555,193.305,1139.38,-124.345,379.751,1203.89,-123.371,277.439,1195.3,21.1258,523.319,856.203,12.501,484.919,659.672,-60.4367,482.011,496.155,-109.351,410.617,247.256,-178.539,362.86,207.654,36.0069,402.025,191.515,108.803,132.464,860.175,167.969,158.209,679.405,37.3502,151.226,513.341,-101.768,194.191,354.389,-183.371,237.519,358.132,-22.22,204.508,231.885
209,0,67.6816,466.335,1121.51,70.6838,193.345,1142.08,-125.533,379.596,1206.06,-124.441,277.187,1197.91,15.5947,522.324,857.554,3.90487,484.75,660.893,-69.7229,481.79,497.727,-118.673,410.638,248.616,-187.762,362.958,209.608,26.4535,401.943,191.341,111.493,132.248,864.635,171.172,158.742,683.814,46.397,151.684,512.836,-85.233,194.14,347.456,-167.143,237.587,346.399,1.91962,203.325,230.608
210,0,66.9725,466.344,1124.02,69.7737,193.346,1144.73,-126.661,379.279,1208.22,-125.393,276.782,1200.48,10.0512,521.268,858.904,-4.61947,484.531,662.216,-78.9505,481.517,499.412,-127.976,410.626,250.086,-197.001,363.025,211.733,16.8558,401.862,191.166,113.937,132.037,868.997,173.588,159.258,687.911,55.3527,152.121,511.999,-68.0254,194.101,340.218,-149.935,237.674,334.3,26.3723,202.183,229.316
211,0,66.4177,466.306,1126.46,69.038,193.306,1147.29,-127.717,378.801,1210.36,-126.216,276.231,1202.99,4.53659,520.167,860.232,-13.0242,484.256,663.618,-88.0826,481.186,501.194,-137.254,410.575,251.662,-206.247,363.048,214.026,7.21006,401.775,190.99,116.068,131.822,873.172,175.219,159.758,691.634,64.2151,152.539,510.855,-50.1804,194.086,332.815,-131.777,237.768,322.034,51.0125,201.142,228.078
212,0,66.0186,466.219,1128.81,68.4876,193.225,1149.75,-128.684,378.165,1212.42,-126.899,275.538,1205.4,-0.901742,519.036,861.519,-21.2595,483.917,665.076,-97.0811,480.794,503.056,-146.499,410.476,253.338,-215.493,363.014,216.478,-2.4887,401.678,190.813,117.823,131.586,877.067,176.083,160.239,694.931,72.9738,152.94,509.436,-31.7634,194.107,325.389,-112.739,237.858,309.801,75.722,200.265,226.965
213,0,65.7738,466.081,1131.04,68.1323,193.102,1152.06,-129.551,377.372,1214.4,-127.432,274.707,1207.68,-6.21215,517.89,862.753,-29.2736,483.512,666.565,-105.907,480.339,504.979,-155.708,410.329,255.108,-224.731,362.916,219.078,-12.246,401.566,190.634,119.144,131.312,880.593,176.212,160.701,697.762,81.6087,153.327,507.782,-12.874,194.176,318.078,-92.937,237.939,297.796,100.382,199.618,226.05
214,0,65.6801,465.891,1133.12,67.9799,192.938,1154.2,-130.302,376.428,1216.25,-127.806,273.744,1209.78,-11.3412,516.74,863.923,-37.0134,483.038,668.056,-114.521,479.824,506.945,-164.88,410.133,256.967,-233.953,362.753,221.816,-22.0669,401.435,190.456,119.987,130.98,883.662,175.661,161.145,700.097,90.089,153.708,505.934,6.35223,194.307,311.012,-72.5331,238.009,286.204,124.865,199.262,225.397
215,0,65.7324,465.649,1135.05,68.0365,192.731,1156.14,-130.926,375.339,1217.95,-128.014,272.655,1211.69,-16.2362,515.596,865.019,-44.4251,482.495,669.523,-122.884,479.259,508.932,-174.016,409.896,258.909,-243.155,362.531,224.677,-31.9556,401.281,190.28,120.322,130.57,886.2,174.499,161.573,701.923,98.373,154.09,503.937,25.7436,194.514,304.303,-51.7354,238.073,275.186,149.026,199.251,225.058
216,0,65.9238,465.354,1136.79,68.3062,192.483,1157.85,-131.412,374.111,1219.47,-128.049,271.446,1213.36,-20.8469,514.467,866.03,-51.4546,481.887,670.933,-130.958,478.653,510.919,-183.119,409.628,260.927,-252.338,362.262,227.647,-41.9139,401.102,190.109,120.139,130.066,888.141,172.812,161.986,703.238,106.409,154.482,501.832,45.0944,194.81,298.044,-30.7948,238.142,264.882,172.695,199.623,225.066
217,0,66.2466,465.008,1138.34,68.7912,192.194,1159.32,-131.751,372.752,1220.78,-127.906,270.121,1214.79,-25.1271,513.361,866.946,-58.0485,481.221,672.257,-138.702,478.022,512.883,-192.191,409.345,263.013,-261.504,361.968,230.713,-51.9413,400.898,189.947,119.448,129.46,889.442,170.701,162.389,704.051,114.138,154.892,499.66,64.1696,195.207,292.305,-9.99908,238.232,255.402,195.677,200.401,225.422
218,0,66.6922,464.611,1139.68,69.4914,191.865,1160.52,-131.935,371.273,1221.86,-127.582,268.688,1215.94,-29.0356,512.285,867.753,-64.1537,480.508,673.461,-146.079,477.386,514.802,-201.233,409.068,265.16,-270.66,361.679,233.864,-62.0345,400.67,189.798,118.289,128.75,890.08,168.278,162.787,704.386,121.493,155.331,497.454,82.7111,195.719,287.126,10.3348,238.364,246.822,217.747,201.589,226.097
219,0,67.2515,464.161,1140.8,70.4043,191.496,1161.45,-131.96,369.683,1222.67,-127.077,267.153,1216.8,-32.536,511.243,868.438,-69.7185,479.763,674.512,-153.049,476.764,516.653,-210.243,408.819,267.359,-279.817,361.427,237.09,-72.1875,400.421,189.664,116.724,127.948,890.055,165.663,163.185,704.274,128.406,155.807,495.241,100.447,196.353,282.523,29.8718,238.559,239.185,238.659,203.171,227.022
220,0,67.9156,463.66,1141.7,71.5252,191.088,1162.09,-131.822,367.994,1223.2,-126.393,265.526,1217.35,-35.5968,510.242,868.981,-74.6923,479.006,675.379,-159.574,476.181,518.411,-219.214,408.623,269.603,-288.983,361.251,240.391,-82.3923,400.157,189.547,114.848,127.078,889.396,162.98,163.589,703.757,134.807,156.329,493.043,117.101,197.117,278.483,48.2712,238.841,232.5,258.15,205.111,228.093
221,0,68.6754,463.105,1142.35,72.8468,190.641,1162.44,-131.522,366.219,1223.44,-125.535,263.814,1217.6,-38.1899,509.285,869.362,-79.0255,478.258,676.028,-165.613,475.659,520.057,-228.131,408.505,271.884,-298.164,361.19,243.768,-92.6398,399.883,189.445,112.777,126.177,888.155,160.351,164.007,702.88,140.631,156.901,490.871,132.404,198.012,274.97,65.2009,239.228,226.746,275.95,207.355,229.175
222,0,69.522,462.496,1142.77,74.3594,190.155,1162.5,-131.063,364.374,1223.38,-124.509,262.028,1217.53,-40.2901,508.376,869.559,-82.6697,477.546,676.431,-171.126,475.223,521.57,-236.969,408.491,274.199,-307.355,361.279,247.236,-102.921,399.606,189.357,110.653,125.291,886.411,157.895,164.446,701.696,145.819,157.529,488.732,146.109,199.036,271.931,80.352,239.735,221.875,291.803,209.834,230.116
223,0,70.4469,461.832,1142.95,76.0507,189.631,1162.27,-130.452,362.473,1222.99,-123.327,260.179,1217.15,-41.8738,507.519,869.546,-85.5778,476.898,676.56,-176.069,474.894,522.933,-245.691,408.601,276.546,-316.54,361.55,250.816,-113.228,399.333,189.274,108.632,124.475,884.26,155.718,164.912,700.255,150.323,158.213,486.627,157.997,200.18,269.296,93.4534,240.369,217.819,305.475,212.471,230.758
224,0,71.4414,461.11,1142.9,77.9061,189.069,1161.76,-129.697,360.533,1222.3,-122.001,258.281,1216.46,-42.9182,506.718,869.301,-87.7041,476.342,676.39,-180.397,474.692,524.132,-254.249,408.851,278.93,-325.685,362.027,254.541,-123.554,399.067,189.186,106.878,123.786,881.814,153.91,165.408,698.609,154.108,158.951,484.55,167.891,201.432,266.992,104.285,241.131,214.494,316.771,215.179,230.954
225,0,72.4967,460.329,1142.61,79.9083,188.467,1160.99,-128.809,358.571,1221.29,-120.546,256.347,1215.49,-43.4009,505.977,868.8,-89.0046,475.909,675.903,-184.063,474.635,525.16,-262.58,409.254,281.359,-334.731,362.719,258.454,-133.897,398.812,189.08,105.552,123.276,879.192,152.546,165.936,696.807,157.152,159.739,482.495,175.666,202.772,264.944,112.691,242.009,211.808,325.554,217.873,230.586
226,0,73.6034,459.489,1142.1,82.0381,187.826,1159.97,-127.804,356.603,1219.98,-118.982,254.39,1214.24,-43.3001,505.3,868.027,-89.438,475.628,675.085,-187.017,474.736,526.014,-270.606,409.815,283.85,-343.598,363.628,262.609,-144.255,398.567,188.943,104.797,122.989,876.512,151.674,166.494,694.893,159.45,160.566,480.456,181.251,204.174,263.082,118.585,242.984,209.668,331.75,220.472,229.582
227,0,74.7515,458.589,1141.37,84.2738,187.145,1158.73,-126.697,354.646,1218.38,-117.327,252.427,1212.74,-42.5953,504.695,866.967,-88.9668,475.525,673.931,-189.21,475.007,526.695,-278.24,410.531,286.427,-352.174,364.74,267.068,-154.629,398.327,188.762,104.731,122.952,873.885,151.322,167.076,692.906,161.01,161.421,478.424,184.638,205.609,261.347,121.957,244.028,207.983,335.36,222.902,227.919
228,0,75.9302,457.631,1140.44,86.5922,186.425,1157.28,-125.508,352.715,1216.51,-115.605,250.471,1211.01,-41.2681,504.168,865.615,-87.5588,475.625,672.442,-190.59,475.454,527.214,-285.383,411.396,289.12,-360.327,366.028,271.897,-165.019,398.082,188.53,105.432,123.172,871.403,151.49,167.67,690.877,161.859,162.289,476.395,185.875,207.043,259.695,122.873,245.109,206.671,336.463,225.104,225.636
229,0,77.1273,456.617,1139.32,88.9684,185.665,1155.66,-124.256,350.826,1214.4,-113.837,248.538,1209.09,-39.3042,503.727,863.977,-85.1889,475.946,670.629,-191.109,476.08,527.585,-291.928,412.396,291.968,-367.899,367.455,277.165,-175.422,397.821,188.247,106.93,123.632,869.138,152.154,168.262,688.832,162.032,163.151,474.366,185.072,208.442,258.094,121.47,246.187,205.66,335.212,227.036,222.823
230,0,78.3299,455.553,1138.03,91.3765,184.865,1153.89,-122.963,348.991,1212.08,-112.047,246.642,1207.01,-36.6954,503.381,862.066,-81.8413,476.5,668.511,-190.721,476.887,527.831,-297.771,413.512,295.014,-374.718,368.974,282.938,-185.828,397.525,187.924,109.199,124.292,867.137,153.264,168.833,686.788,161.576,163.987,472.338,182.385,209.77,256.53,117.949,247.223,204.891,331.825,228.671,219.616
231,0,79.5238,454.443,1136.59,93.7896,184.027,1152,-121.651,347.221,1209.57,-110.26,244.795,1204.79,-33.4418,503.137,859.909,-77.5113,477.293,666.117,-189.388,477.872,527.978,-302.805,414.723,298.305,-380.609,370.532,289.273,-196.216,397.178,187.587,112.159,125.092,865.415,154.751,169.361,684.757,160.544,164.777,470.312,178.015,210.992,254.998,112.561,248.181,204.316,326.573,229.998,216.181
232,0,80.6944,453.297,1135.02,96.1807,183.152,1150.03,-120.341,345.525,1206.92,-108.499,243.008,1202.49,-29.5539,503.004,857.543,-72.2072,478.321,663.486,-187.078,479.029,528.056,-306.936,416.003,301.886,-385.397,372.076,296.213,-206.546,396.763,187.278,115.678,125.956,863.961,156.525,169.822,682.742,158.993,165.502,468.295,172.191,212.079,253.506,105.593,249.027,203.898,319.762,231.021,212.695
233,0,81.8268,452.126,1133.33,98.5232,182.242,1147.99,-119.055,343.908,1204.16,-106.786,241.292,1200.12,-25.0548,502.987,855.013,-65.9523,479.574,660.665,-183.773,480.353,528.102,-310.08,417.328,305.803,-388.927,373.552,303.782,-216.76,396.268,187.055,119.575,126.796,862.736,158.483,170.19,680.745,156.98,166.14,466.294,165.159,213.007,252.066,97.35,249.735,203.61,311.714,231.759,209.329
234,0,82.9063,450.94,1131.57,100.791,181.298,1145.93,-117.811,342.376,1201.33,-105.142,239.655,1197.74,-19.9819,503.087,852.374,-58.7853,481.03,657.709,-179.468,481.831,528.149,-312.174,418.673,310.092,-391.073,374.912,311.98,-226.767,395.692,186.992,123.641,127.525,861.682,160.512,170.442,678.762,154.556,166.677,464.317,157.172,213.756,250.696,88.1395,250.288,203.431,302.746,232.236,206.227
235,0,83.9194,449.754,1129.74,102.96,180.323,1143.86,-116.629,340.929,1198.48,-103.588,238.102,1195.38,-14.3877,503.301,849.685,-50.7608,482.661,654.68,-174.171,483.451,528.236,-313.172,420.012,314.781,-391.745,376.115,320.777,-236.45,395.044,187.175,127.643,128.06,860.728,162.492,170.557,676.786,151.769,167.099,462.371,148.473,214.317,249.408,78.2542,250.677,203.344,293.155,232.487,203.499
236,0,84.8539,448.579,1127.89,105.006,179.321,1141.82,-115.525,339.568,1195.64,-102.139,236.637,1193.06,-8.3399,503.621,847.009,-41.9487,484.43,651.647,-167.91,485.197,528.396,-313.055,421.323,319.883,-390.903,377.128,330.117,-245.654,394.349,187.697,131.351,128.333,859.795,164.305,170.517,674.811,148.658,167.396,460.465,139.289,214.688,248.217,67.9596,250.904,203.337,283.2,232.546,201.212
237,0,85.6998,447.43,1126.04,106.909,178.294,1139.83,-114.513,338.289,1192.86,-100.811,235.264,1190.83,-1.92058,504.032,844.407,-32.4326,486.293,648.679,-160.728,487.046,528.663,-311.824,422.585,325.395,-388.557,377.928,339.908,-254.192,393.652,188.65,134.547,128.293,858.808,165.836,170.312,672.832,145.25,167.564,458.607,129.819,214.875,247.131,57.4831,250.979,203.397,273.095,232.452,199.387
238,0,86.4497,446.318,1124.22,108.652,177.246,1137.92,-113.603,337.089,1190.17,-99.6163,233.981,1188.71,4.7758,504.513,841.937,-22.3073,488.203,645.85,-152.681,488.974,529.064,-309.503,423.78,331.294,-384.771,378.504,350.034,-261.847,393.011,190.118,137.044,127.914,857.705,166.981,169.936,670.844,141.566,167.603,456.803,120.23,214.892,246.151,47.0083,250.92,203.511,263.005,232.242,198.005
239,0,87.0992,445.255,1122.46,110.219,176.181,1136.09,-112.803,335.965,1187.61,-98.5629,232.788,1186.73,11.6456,505.041,839.653,-11.676,490.107,643.233,-143.843,490.951,529.624,-306.133,424.89,337.538,-379.654,378.852,360.347,-268.379,392.505,192.166,138.701,127.19,856.44,167.649,169.392,668.846,137.616,167.52,455.059,110.653,214.757,245.275,36.6724,250.749,203.668,253.043,231.95,197.018
240,0,87.6471,444.248,1120.8,111.599,175.1,1134.39,-112.121,334.909,1185.21,-97.6571,231.682,1184.92,18.5798,505.584,837.599,-0.646855,491.954,640.896,-134.297,492.94,530.36,-301.771,425.903,344.063,-373.359,378.977,370.681,-273.536,392.218,194.834,139.428,126.144,854.989,167.762,168.69,666.844,133.403,167.324,453.381,101.181,214.497,244.499,26.5671,250.493,203.854,243.278,231.609,196.353
241,0,88.0952,443.304,1119.27,112.783,174.01,1132.81,-111.557,333.918,1183.02,-96.902,230.66,1183.29,25.4692,506.113,835.815,10.671,493.692,638.908,-124.137,494.9,531.287,-296.484,426.808,350.786,-366.067,378.893,380.851,-277.066,392.242,198.126,139.193,124.817,853.355,167.265,167.847,664.844,128.922,167.03,451.776,91.877,214.139,243.812,16.7428,250.18,204.057,233.74,231.244,195.929
242,0,88.4482,442.426,1117.9,113.766,172.911,1131.38,-111.112,332.986,1181.05,-96.2977,229.717,1181.86,32.2092,506.596,834.33,22.1707,495.274,637.327,-113.462,496.787,532.41,-290.347,427.598,357.604,-357.976,378.622,390.664,-278.734,392.66,202.012,138.018,123.266,851.565,166.118,166.887,662.859,124.166,166.653,450.249,82.7691,213.712,243.205,7.21459,249.835,204.267,224.428,230.877,195.667
243,0,88.7135,441.613,1116.71,114.548,171.81,1130.11,-110.784,332.107,1179.34,-95.8414,228.848,1180.65,38.7053,507.006,833.168,33.7508,496.657,636.206,-102.373,498.553,533.733,-283.434,428.269,364.398,-349.288,378.189,399.921,-278.337,393.54,206.42,135.98,121.561,849.667,164.302,165.839,660.907,119.124,166.216,448.806,73.862,213.243,242.669,-2.03016,249.483,204.474,215.32,230.523,195.494
244,0,88.9005,440.862,1115.74,115.131,170.709,1129.01,-110.568,331.278,1177.9,-95.5278,228.047,1179.67,44.8778,507.32,832.345,45.3175,497.808,635.589,-90.9743,500.149,535.253,-275.819,428.825,371.038,-340.194,377.631,408.431,-275.721,394.922,211.242,133.195,119.779,847.726,161.814,164.737,659.009,113.786,165.737,447.457,65.1399,212.759,242.193,-11.0242,249.143,204.672,206.381,230.194,195.353
245,0,89.0198,440.169,1115.01,115.519,169.612,1128.09,-110.457,330.495,1176.76,-95.3493,227.307,1178.92,50.6663,507.52,831.87,56.7866,498.7,635.51,-79.3679,501.529,536.964,-267.573,429.271,377.384,-330.863,376.987,416.011,-270.791,396.813,216.339,129.812,117.997,845.816,158.668,163.614,657.186,108.144,165.24,446.207,56.5735,212.284,241.773,-19.8128,248.829,204.859,197.568,229.895,195.203
246,0,89.0831,439.525,1114.54,115.721,168.525,1127.36,-110.444,329.755,1175.93,-95.2961,226.622,1178.41,56.032,507.597,831.749,68.0835,499.315,635.989,-67.6524,502.649,538.856,-258.759,429.62,383.293,-321.431,376.303,422.496,-263.519,399.18,221.549,125.992,116.288,844.01,154.89,162.508,655.464,102.19,164.744,445.067,48.1247,211.837,241.405,-28.4472,248.552,205.035,188.841,229.627,195.021
247,0,89.1019,438.923,1114.33,115.747,167.452,1126.82,-110.52,329.055,1175.41,-95.3568,225.986,1178.14,60.9593,507.548,831.984,79.1435,499.646,637.038,-55.9224,503.474,540.914,-249.434,429.887,388.623,-311.997,375.629,427.742,-253.95,401.946,226.698,121.899,114.718,842.376,150.517,161.451,653.866,95.922,164.269,444.046,39.7527,211.433,241.088,-36.979,248.317,205.204,180.16,229.389,194.799
248,0,89.0874,438.353,1114.41,115.611,166.399,1126.46,-110.674,328.393,1175.21,-95.5185,225.392,1178.12,65.4555,507.378,832.574,89.9103,499.695,638.655,-44.2671,503.978,543.12,-239.648,430.092,393.238,-302.62,375.014,431.63,-242.198,405.002,231.61,117.684,113.34,840.972,145.593,160.475,652.415,89.343,163.833,443.153,31.4169,211.082,240.823,-45.4562,248.125,205.375,171.492,229.176,194.539
249,0,89.0496,437.807,1114.78,115.326,165.371,1126.3,-110.898,327.767,1175.34,-95.7672,224.834,1178.33,69.5485,507.099,833.517,100.335,499.471,640.825,-32.7699,504.148,545.452,-229.443,430.255,397.013,-293.315,374.507,434.071,-228.439,408.211,236.119,113.475,112.195,839.835,140.166,159.606,651.131,82.4593,163.449,442.399,23.0809,210.792,240.617,-53.9203,247.975,205.559,162.812,228.985,194.253
250,0,88.9971,437.278,1115.42,114.907,164.376,1126.31,-111.179,327.177,1175.79,-96.0885,224.306,1178.78,73.2836,506.725,834.808,110.372,498.992,643.52,-21.5078,503.982,547.882,-218.853,430.397,399.84,-284.061,374.149,435.003,-212.896,411.424,240.081,109.364,111.309,838.986,134.287,158.865,650.032,75.2822,163.128,441.792,14.7142,210.567,240.477,-62.405,247.864,205.772,154.099,228.811,193.956
251,0,88.9368,436.76,1116.33,114.372,163.421,1126.51,-111.51,326.62,1176.55,-96.4677,223.802,1179.46,76.718,506.274,836.442,119.98,498.284,646.702,-10.5502,503.493,550.375,-207.904,430.535,401.631,-274.802,373.969,434.394,-195.826,414.494,243.378,105.408,110.694,838.427,128.007,158.265,649.131,67.8272,162.877,441.342,6.29321,210.407,240.41,-70.9353,247.787,206.028,145.342,228.651,193.661
252,0,88.8734,436.25,1117.5,113.737,162.513,1126.87,-111.879,326.097,1177.61,-96.8901,223.319,1180.36,79.9162,505.768,838.412,129.117,497.376,650.32,0.0411353,502.707,552.89,-196.618,430.684,402.32,-265.456,373.983,432.24,-177.501,417.294,245.925,101.623,110.348,838.141,121.373,157.814,648.437,60.1135,162.7,441.054,-2.19821,210.309,240.427,-79.5283,247.74,206.346,136.531,228.505,193.381
253,0,88.8101,435.747,1118.9,113.017,161.66,1127.38,-112.278,325.605,1178.96,-97.3417,222.852,1181.46,82.9436,505.226,840.71,137.743,496.299,654.314,10.2135,501.659,555.379,-185.006,430.852,401.868,-255.924,374.188,428.562,-158.187,419.729,247.672,97.9891,110.259,838.102,114.433,157.512,647.956,52.1635,162.597,440.937,-10.7692,210.268,240.539,-88.1938,247.718,206.744,127.662,228.37,193.125
254,0,88.7482,435.254,1120.5,112.23,160.869,1128.03,-112.697,325.146,1180.58,-97.8091,222.4,1182.77,85.8616,504.666,843.323,145.814,495.088,658.612,19.9239,500.395,557.784,-173.071,431.041,400.261,-246.091,374.565,423.408,-138.132,421.745,248.608,94.458,110.403,838.271,107.228,157.353,647.689,44.0018,162.562,440.993,-19.4225,210.279,240.755,-96.9354,247.717,207.242,118.735,228.25,192.897
255,0,88.6875,434.773,1122.27,111.39,160.149,1128.81,-113.128,324.719,1182.43,-98.2801,221.963,1184.26,88.7225,504.102,846.237,153.283,493.778,663.137,29.1399,498.965,560.043,-160.81,431.246,397.514,-235.841,375.075,416.845,-117.553,423.333,248.754,90.9587,110.747,838.611,99.7978,157.325,647.635,35.655,162.591,441.228,-28.1559,210.334,241.087,-105.752,247.732,207.857,109.748,228.145,192.694
256,0,88.6267,434.311,1124.18,110.512,159.505,1129.68,-113.564,324.325,1184.51,-98.7437,221.54,1185.92,91.5661,503.546,849.43,160.105,492.401,667.805,37.8401,497.422,562.087,-148.21,431.457,393.667,-225.062,375.67,408.961,-96.6217,424.524,248.163,87.4103,111.255,839.081,92.1789,157.409,647.789,27.1508,162.671,441.641,-36.963,210.424,241.544,-114.638,247.76,208.607,100.703,228.055,192.513
257,0,88.5639,433.876,1126.2,109.61,158.943,1130.64,-113.996,323.967,1186.77,-99.1902,221.135,1187.73,94.4174,503.007,852.877,166.232,490.988,672.53,46.0147,495.818,563.847,-135.25,431.658,388.786,-213.645,376.291,399.864,-75.4665,425.381,246.914,83.7315,111.886,839.648,84.4043,157.585,648.143,18.5177,162.79,442.232,-45.8346,210.537,242.134,-123.587,247.794,209.509,91.6008,227.982,192.346
258,0,88.4969,433.476,1128.29,108.695,158.469,1131.67,-114.416,323.647,1189.19,-99.6115,220.753,1189.68,97.2856,502.488,856.543,171.619,489.565,677.222,53.665,494.2,565.254,-121.902,431.832,382.957,-201.498,376.877,389.677,-54.1699,425.987,245.11,79.8512,112.601,840.288,76.5053,157.829,648.688,9.78437,162.936,442.998,-54.7599,210.663,242.865,-132.589,247.829,210.577,82.4405,227.924,192.185
259,0,88.4238,433.12,1130.41,107.78,158.084,1132.73,-114.818,323.371,1191.73,-100.001,220.401,1191.74,100.164,501.99,860.388,176.224,488.155,681.795,60.8026,492.61,566.246,-108.132,431.96,376.291,-188.544,377.375,378.539,-32.7734,426.427,242.869,75.7161,113.36,840.981,68.5117,158.116,649.412,0.979477,163.092,443.936,-63.7273,210.791,243.742,-141.635,247.858,211.822,73.2218,227.877,192.022
260,0,88.3436,432.817,1132.54,106.874,157.792,1133.82,-115.194,323.142,1194.37,-100.352,220.087,1193.9,103.031,501.513,864.36,180.011,486.775,686.163,67.4484,491.08,566.772,-93.9054,432.023,368.915,-174.724,377.739,366.605,-11.2859,426.777,240.318,71.2968,114.128,841.72,60.4526,158.42,650.303,-7.86875,163.244,445.038,-72.7249,210.907,244.767,-150.715,247.873,213.254,63.943,227.837,191.851
261,0,88.2564,432.573,1134.65,105.99,157.592,1134.92,-115.537,322.969,1197.06,-100.662,219.82,1196.13,105.852,501.054,868.402,182.955,485.437,690.25,73.6304,489.633,566.794,-79.1873,432.006,360.97,-160.002,377.942,354.046,10.3065,427.085,237.591,66.5901,114.875,842.503,52.3572,158.719,651.345,-16.7327,163.377,446.297,-81.7415,211,245.943,-159.819,247.864,214.88,54.6019,227.797,191.667
262,0,88.164,432.394,1136.71,105.135,157.482,1136,-115.838,322.859,1199.77,-100.925,219.612,1198.41,108.581,500.613,872.448,185.04,484.147,693.985,79.3812,488.281,566.292,-63.9508,431.897,352.61,-144.365,377.973,341.041,32.0287,427.369,234.823,61.6194,115.577,843.331,44.2554,158.991,652.524,-25.5854,163.478,447.701,-90.7668,211.057,247.268,-168.937,247.819,216.7,45.1954,227.748,191.467
263,0,88.0701,432.283,1138.7,104.32,157.46,1137.05,-116.089,322.819,1202.46,-101.14,219.476,1200.7,111.163,500.191,876.426,186.265,482.909,697.309,84.7362,487.028,565.264,-48.1823,431.688,343.999,-127.828,377.838,327.786,53.9043,427.609,232.145,56.4313,116.218,844.21,36.1784,159.219,653.822,-34.401,163.535,449.238,-99.7913,211.068,248.739,-178.061,247.729,218.714,35.7206,227.685,191.251
264,0,87.9805,432.243,1140.61,103.555,157.52,1138.06,-116.283,322.86,1205.1,-101.304,219.422,1202.98,113.538,499.793,880.26,186.646,481.721,700.174,89.73,485.87,563.731,-31.8877,431.373,335.301,-110.434,377.558,314.48,75.9437,427.755,229.678,51.092,116.789,845.142,28.159,159.392,655.22,-43.1544,163.538,450.894,-108.807,211.022,250.349,-187.183,247.581,220.916,26.1742,227.597,191.022
265,0,87.9036,432.272,1142.41,102.848,157.659,1139,-116.41,322.99,1207.66,-101.414,219.462,1205.21,115.638,499.429,883.871,186.216,480.576,702.546,94.3947,484.794,561.731,-15.0993,430.952,326.682,-92.2606,377.165,301.327,98.1328,427.727,227.529,45.6807,117.288,846.13,20.2318,159.501,656.699,-51.8216,163.482,452.65,-117.807,210.91,252.089,-196.297,247.365,223.299,16.5537,227.48,190.783
266,0,87.8499,432.368,1144.11,102.211,157.869,1139.87,-116.462,323.216,1210.08,-101.467,219.606,1207.37,117.396,499.114,887.178,185.025,479.469,704.404,98.7572,483.784,559.319,2.11831,430.424,318.3,-73.4195,376.693,288.529,120.424,427.434,225.79,40.2838,117.72,847.169,12.4334,159.544,658.236,-60.3796,163.362,454.488,-126.785,210.724,253.951,-205.397,247.07,225.85,6.85714,227.33,190.54
267,0,87.8322,432.527,1145.69,101.654,158.144,1140.65,-116.432,323.546,1212.35,-101.459,219.864,1209.43,118.746,498.863,890.107,183.142,478.388,705.742,102.838,482.819,556.562,19.6631,429.788,310.3,-54.0616,376.174,276.281,142.728,426.785,224.524,34.9886,118.097,848.249,4.8023,159.525,659.807,-68.8065,163.177,456.388,-135.737,210.46,255.919,-214.481,246.689,228.554,-2.91619,227.143,190.297
268,0,87.8653,432.744,1147.14,101.188,158.477,1141.33,-116.31,323.985,1214.44,-101.388,220.242,1211.34,119.626,498.699,892.587,180.653,477.325,706.567,106.649,481.877,553.535,37.3932,429.044,302.808,-34.3778,375.631,264.758,164.911,425.703,223.767,29.8787,118.434,849.353,-2.62136,159.45,661.387,-77.0815,162.929,458.327,-144.661,210.114,257.981,-223.547,246.215,231.395,-12.7657,226.922,190.061
269,0,87.9657,433.012,1148.48,100.824,158.861,1141.9,-116.089,324.536,1216.3,-101.248,220.743,1213.07,119.98,498.639,894.556,177.659,476.271,706.898,110.194,480.936,550.315,55.1259,428.189,295.926,-14.5993,375.074,254.114,186.793,424.139,223.52,25.0294,118.749,850.461,-9.79615,159.333,662.948,-85.1845,162.622,460.282,-153.553,209.684,260.121,-232.594,245.643,234.355,-22.689,226.667,189.837
270,0,88.1512,433.325,1149.68,100.573,159.291,1142.34,-115.764,325.2,1217.93,-101.034,221.369,1214.61,119.769,498.7,895.966,174.273,475.219,706.767,113.47,479.975,546.98,72.6408,427.216,289.726,5.0055,374.499,244.472,208.148,422.078,223.744,20.5054,119.064,851.545,-16.6797,159.188,664.459,-93.0963,162.265,462.227,-162.413,209.171,262.323,-241.626,244.972,237.415,-32.6824,226.384,189.627
271,0,88.44,433.678,1150.75,100.447,159.761,1142.66,-115.328,325.973,1219.28,-100.74,222.116,1215.9,118.968,498.891,896.783,170.616,474.165,706.212,116.463,478.977,543.596,89.6848,426.12,284.247,24.1356,373.885,235.917,228.718,419.548,224.361,16.3595,119.397,852.575,-23.2293,159.032,665.889,-100.798,161.864,464.137,-171.24,208.579,264.57,-250.644,244.201,240.558,-42.7402,226.077,189.435
272,0,88.8503,434.066,1151.69,100.455,160.269,1142.83,-114.778,326.852,1220.36,-100.361,222.977,1216.94,117.577,499.212,896.989,166.817,473.106,705.281,119.157,477.929,540.224,105.981,424.891,279.494,42.4664,373.2,228.493,248.215,416.615,225.255,12.6324,119.768,853.517,-29.4019,158.885,667.205,-108.271,161.431,465.989,-180.035,207.912,266.846,-259.654,243.333,243.766,-52.8553,225.754,189.261
273,0,89.3996,434.485,1152.5,100.607,160.81,1142.86,-114.113,327.826,1221.13,-99.8896,223.943,1217.7,115.626,499.652,896.588,163,472.046,704.024,121.527,476.823,536.91,121.241,423.522,275.438,59.6611,372.402,222.201,266.338,413.38,226.279,9.35338,120.195,854.336,-35.1551,158.765,668.373,-115.496,160.976,467.756,-188.795,207.175,269.136,-268.66,242.369,247.027,-63.0194,225.419,189.103
274,0,90.1033,434.934,1153.16,100.911,161.386,1142.73,-113.331,328.885,1221.59,-99.3215,225,1218.15,113.176,500.187,895.604,159.287,470.992,702.497,123.549,475.657,533.688,135.175,422.007,272.02,75.385,371.45,216.999,282.792,409.971,227.261,6.5417,120.69,854.998,-40.4467,158.69,669.358,-122.453,160.511,469.416,-197.519,206.377,271.428,-277.665,241.315,250.33,-73.2233,225.078,188.959
275,0,90.9745,435.411,1153.69,101.371,161.995,1142.43,-112.436,330.013,1221.74,-98.6515,226.133,1218.29,110.32,500.784,894.083,155.791,469.956,700.753,125.199,474.437,530.581,147.513,420.347,269.157,89.3217,370.305,212.808,297.3,406.529,228.028,4.20824,121.265,855.468,-45.2356,158.676,670.126,-129.121,160.048,470.949,-206.201,205.526,273.713,-286.666,240.176,253.669,-83.4576,224.733,188.821
276,0,92.0229,435.919,1154.07,101.991,162.639,1141.97,-111.433,331.196,1221.57,-97.8762,227.323,1218.1,107.187,501.4,892.089,152.606,468.953,698.843,126.453,473.173,527.599,158.013,418.546,266.749,101.19,368.944,209.518,309.621,403.196,228.413,2.35733,121.927,855.714,-49.4813,158.735,670.644,-135.474,159.597,472.335,-214.832,204.632,275.982,-295.658,238.959,257.045,-93.7135,224.388,188.683
277,0,93.2539,436.461,1154.3,102.769,163.322,1141.34,-110.329,332.415,1221.09,-96.9942,228.551,1217.58,103.936,501.992,889.708,149.813,468.003,696.818,127.296,471.887,524.746,166.479,416.618,264.687,110.762,367.356,206.997,319.567,400.103,228.278,0.988449,122.679,855.706,-53.1443,158.877,670.88,-141.485,159.167,473.562,-223.397,203.705,278.237,-304.627,237.672,260.466,-103.983,224.044,188.536
278,0,94.6682,437.04,1154.38,103.702,164.047,1140.54,-109.133,333.651,1220.31,-96.006,229.796,1216.74,100.745,502.517,887.037,147.466,467.13,694.72,127.718,470.604,522.02,172.772,414.585,262.866,117.872,365.553,205.103,327.017,397.356,227.529,0.0978893,123.52,855.418,-56.186,159.108,670.807,-147.125,158.768,474.618,-231.874,202.754,280.48,-313.548,236.325,263.949,-114.26,223.699,188.37
279,0,96.2608,437.663,1154.31,104.781,164.817,1139.56,-107.858,334.885,1219.25,-94.9152,231.039,1215.59,97.8041,502.944,884.188,145.6,466.359,692.59,127.718,469.359,519.417,176.819,412.481,261.19,122.436,363.568,203.692,331.92,395.033,226.127,-0.319814,124.449,854.829,-58.5688,159.426,670.4,-152.357,158.404,475.498,-240.232,201.792,282.721,-322.383,234.929,267.516,-124.542,223.355,188.173
280,0,98.0212,438.335,1154.1,105.995,165.637,1138.43,-106.518,336.101,1217.93,-93.728,232.26,1214.14,95.2995,503.254,881.274,144.223,465.717,690.458,127.306,468.187,516.932,178.618,410.347,259.582,124.45,361.453,202.63,334.304,393.175,224.093,-0.270606,125.459,853.922,-60.2563,159.829,669.641,-157.142,158.081,476.204,-248.43,200.829,284.977,-331.082,233.5,271.203,-134.826,223.011,187.939
281,0,99.9329,439.063,1153.74,107.328,166.51,1137.13,-105.129,337.282,1216.38,-92.4544,233.444,1212.42,93.3975,503.448,878.406,143.318,465.231,688.352,126.501,467.131,514.565,178.235,408.23,257.984,123.996,359.278,201.803,334.274,391.789,221.509,0.240128,126.541,852.689,-61.214,160.307,668.519,-161.437,157.799,476.74,-256.419,199.878,287.271,-339.575,232.059,275.052,-145.116,222.669,187.659
282,0,101.974,439.85,1153.24,108.759,167.439,1135.69,-103.708,338.415,1214.62,-91.1072,234.576,1210.44,92.2287,503.547,875.69,142.847,464.925,686.292,125.33,466.23,512.317,175.808,406.182,256.367,121.233,357.122,201.118,332.003,390.85,218.503,1.20834,127.686,851.13,-61.4096,160.847,667.028,-165.196,157.558,477.119,-264.138,198.948,289.631,-347.781,230.627,279.112,-155.414,222.331,187.334
283,0,104.115,440.702,1152.62,110.266,168.425,1134.12,-102.274,339.491,1212.7,-89.703,235.648,1208.26,91.874,503.589,873.214,142.751,464.822,684.293,123.829,465.522,510.193,171.527,404.259,254.724,116.389,355.066,200.511,327.725,390.308,215.24,2.63172,128.881,849.252,-60.8146,161.433,665.173,-168.369,157.355,477.358,-271.516,198.053,292.091,-355.602,229.235,283.44,-165.724,222.004,186.969
284,0,106.326,441.62,1151.87,111.821,169.47,1132.43,-100.846,340.503,1210.64,-88.2612,236.654,1205.89,92.3537,503.631,871.044,142.954,464.936,682.365,122.033,465.041,508.2,165.631,402.51,253.069,109.747,353.189,199.942,321.716,390.098,211.897,4.5097,130.11,847.076,-59.4048,162.046,662.968,-170.904,157.185,477.483,-278.475,197.204,294.69,-362.928,227.915,288.095,-176.05,221.695,186.578
285,0,108.568,442.605,1151.01,113.397,170.57,1130.66,-99.4442,341.451,1208.5,-86.8044,237.594,1203.38,93.6224,503.732,869.226,143.37,465.277,680.512,119.981,464.811,506.347,158.389,400.979,251.431,101.623,351.554,199.397,314.279,390.142,208.648,6.84292,131.359,844.63,-57.1627,162.664,660.436,-172.752,157.041,477.521,-284.931,196.411,297.467,-369.641,226.704,293.136,-186.387,221.413,186.187
286,0,110.803,443.655,1150.07,114.961,171.723,1128.82,-98.0864,342.338,1206.3,-85.3572,238.472,1200.78,95.57,503.958,867.772,143.9,465.845,678.737,117.707,464.845,504.641,150.085,399.7,249.848,92.3496,350.211,198.877,305.725,390.365,205.641,9.63202,132.609,841.954,-54.078,163.265,657.613,-173.863,156.914,477.506,-290.793,195.687,300.464,-375.617,225.639,298.616,-196.723,221.168,185.834
287,0,112.987,444.766,1149.05,116.483,172.923,1126.94,-96.7914,343.172,1204.1,-83.9462,239.298,1198.12,98.0287,504.362,866.673,144.444,466.631,677.039,115.234,465.143,503.088,140.999,398.693,248.361,82.2526,349.185,198.398,296.354,390.698,202.989,12.876,133.843,839.099,-50.15,163.826,654.542,-174.192,156.795,477.474,-295.975,195.04,303.718,-380.736,224.757,304.579,-207.027,220.969,185.569
288,0,115.079,445.93,1147.98,117.93,174.163,1125.06,-95.576,343.963,1201.93,-82.599,240.084,1195.45,100.786,504.985,865.888,144.903,467.619,675.412,112.581,465.693,501.688,131.396,397.963,247.007,71.6363,348.479,197.979,286.445,391.081,200.759,16.5701,135.042,836.124,-45.3879,164.328,651.278,-173.701,156.673,477.465,-300.388,194.477,307.264,-384.883,224.092,311.056,-217.248,220.822,185.454
289,0,117.037,447.139,1146.87,119.273,175.432,1123.2,-94.4562,344.727,1199.83,-81.3435,240.848,1192.82,103.605,505.848,865.359,145.18,468.781,673.852,109.749,466.467,500.435,121.514,397.499,245.812,60.7676,348.074,197.64,276.235,391.465,198.976,20.7032,136.188,833.095,-39.8126,164.752,647.885,-172.359,156.539,477.518,-303.951,194.005,311.126,-387.959,223.674,318.057,-227.308,220.732,185.559
290,0,118.821,448.38,1145.74,120.482,176.721,1121.4,-93.4458,345.481,1197.83,-80.207,241.608,1190.26,106.237,506.946,865.008,145.187,470.084,672.352,106.732,467.428,499.319,111.549,397.277,244.794,49.866,347.932,197.399,265.922,391.817,197.621,25.2554,137.264,830.085,-33.4564,165.085,644.433,-170.144,156.385,477.673,-306.594,193.626,315.321,-389.881,223.519,325.568,-237.095,220.694,185.959
291,0,120.393,449.64,1144.61,121.53,178.017,1119.69,-92.557,346.243,1195.97,-79.2154,242.385,1187.81,108.453,508.254,864.753,144.846,471.489,670.906,103.509,468.528,498.325,101.656,397.261,243.956,39.0989,347.998,197.266,255.654,392.113,196.648,30.1956,138.256,827.167,-26.3629,165.317,641.001,-167.046,156.204,477.965,-308.254,193.342,319.851,-390.595,223.639,333.552,-246.462,220.697,186.726
292,0,121.722,450.905,1143.51,122.394,179.306,1118.1,-91.7999,347.033,1194.27,-78.3926,243.201,1185.51,110.051,509.726,864.511,144.091,472.952,669.508,100.055,469.714,497.434,91.9451,397.405,243.291,28.5808,348.213,197.242,245.532,392.339,195.986,35.4803,139.15,824.415,-18.5864,165.443,637.669,-163.067,155.991,478.43,-308.886,193.149,324.706,-390.071,224.028,341.94,-255.225,220.726,187.928
293,0,122.78,452.16,1142.44,123.054,180.574,1116.67,-91.1829,347.868,1192.76,-77.7592,244.073,1183.38,110.878,511.3,864.206,142.871,474.43,668.154,96.3371,470.931,496.627,82.4829,397.661,242.782,18.3765,348.514,197.325,235.617,392.487,195.56,41.0528,139.937,821.901,-10.1898,165.465,634.521,-158.219,155.745,479.094,-308.457,193.043,329.858,-388.309,224.67,350.638,-263.168,220.755,189.613
294,0,123.545,453.388,1141.43,123.495,181.809,1115.41,-90.712,348.764,1191.46,-77.3324,245.02,1181.47,110.835,512.909,863.783,141.149,475.881,666.844,92.324,472.127,495.887,73.2964,397.98,242.409,8.50822,348.843,197.507,225.931,392.555,195.293,46.8436,140.609,819.69,-1.24342,165.39,631.638,-152.531,155.467,479.979,-306.949,193.015,335.262,-385.339,225.536,359.524,-270.046,220.755,191.811
295,0,124.002,454.574,1140.49,123.705,182.996,1114.36,-90.392,349.733,1190.37,-77.1254,246.053,1179.79,109.884,514.481,863.206,138.904,477.266,665.578,87.9873,473.254,495.199,64.3802,398.317,242.151,-1.03611,349.151,197.778,216.47,392.547,195.118,52.7725,141.161,817.839,8.17762,165.228,629.1,-146.039,155.163,481.1,-304.361,193.058,340.857,-381.217,226.589,368.455,-275.601,220.694,194.522
296,0,124.142,455.705,1139.63,123.678,184.123,1113.53,-90.2254,350.784,1189.51,-77.1463,247.182,1178.36,108.044,515.955,862.466,136.13,478.553,664.365,83.306,474.275,494.556,55.7042,398.637,241.987,-10.2934,349.405,198.129,207.211,392.466,194.982,58.7521,141.594,816.395,17.9956,164.996,626.979,-138.791,154.841,482.463,-300.706,193.16,346.565,-376.025,227.78,377.266,-279.571,220.542,197.718
297,0,123.964,456.767,1138.86,123.412,185.179,1112.94,-90.2135,351.919,1188.88,-77.399,248.41,1177.19,105.383,517.277,861.576,132.835,479.716,663.213,78.2686,475.165,493.956,47.2211,398.913,241.905,-19.3157,349.583,198.553,198.116,392.321,194.848,64.6919,141.907,815.392,28.1325,164.713,625.34,-130.847,154.511,484.064,-296.009,193.309,352.294,-369.859,229.06,385.782,-281.708,220.272,201.336
298,0,123.472,457.75,1138.2,122.91,186.154,1112.61,-90.356,353.136,1188.49,-77.8821,249.733,1176.3,102.012,518.413,860.576,129.038,480.74,662.135,72.8748,475.908,493.403,38.8747,399.131,241.895,-28.1622,349.684,199.049,189.145,392.122,194.694,70.5038,142.104,814.855,38.5111,164.4,624.238,-122.272,154.187,485.892,-290.307,193.496,357.938,-362.827,230.374,393.819,-281.793,219.866,205.285
299,0,122.678,458.646,1137.65,122.179,187.041,1112.55,-90.6513,354.428,1188.33,-78.5896,251.142,1175.7,98.0684,519.342,859.519,124.77,481.616,661.148,67.1353,476.502,492.909,30.607,399.286,241.96,-36.8914,349.716,199.621,180.253,391.881,194.511,76.1075,142.189,814.794,49.0571,164.079,623.715,-113.138,153.881,487.923,-283.648,193.708,363.38,-355.044,231.672,401.196,-279.652,219.318,209.45
300,0,121.598,459.448,1137.23,121.23,187.833,1112.75,-91.0964,355.782,1188.41,-79.5109,252.622,1175.39,93.7037,520.063,858.472,120.07,482.342,660.269,61.0703,476.956,492.491,22.3634,399.386,242.104,-45.5564,349.702,200.275,171.402,391.61,194.299,81.4363,142.166,815.207,59.699,163.771,623.799,-103.52,153.609,490.13,-276.082,193.937,368.498,-346.617,232.909,407.734,-275.166,218.633,213.696
301,0,120.254,460.153,1136.94,120.078,188.528,1113.23,-91.6873,357.18,1188.7,-80.6314,254.153,1175.36,89.0718,520.587,857.502,114.983,482.924,659.517,54.7082,477.284,492.17,14.0977,399.443,242.339,-54.2011,349.669,201.024,162.557,391.325,194.066,86.4409,142.042,816.084,70.3684,163.498,624.506,-93.4953,153.383,492.471,-267.666,194.173,373.167,-337.648,234.048,413.268,-268.281,217.831,217.883
302,0,118.672,460.761,1136.78,118.739,189.124,1113.98,-92.4185,358.599,1189.21,-81.9327,255.712,1175.62,84.317,520.939,856.674,109.558,483.375,658.908,48.0822,477.508,491.967,5.77452,399.476,242.679,-62.8585,349.65,201.882,153.69,391.04,193.819,91.0932,141.822,817.406,80.9994,163.277,625.838,-83.1402,153.216,494.903,-258.455,194.41,377.262,-328.219,235.058,417.651,-259.007,216.939,221.872
303,0,116.882,461.273,1136.75,117.235,189.623,1114.99,-93.2834,360.017,1189.93,-83.3935,257.269,1176.16,79.5648,521.149,856.042,103.844,483.707,658.459,41.2283,477.653,491.904,-2.62949,399.507,243.14,-71.5501,349.675,202.865,144.78,390.77,193.569,95.387,141.513,819.146,91.5276,163.122,627.779,-72.5285,153.118,497.373,-248.503,194.642,380.665,-318.393,235.924,420.756,-247.417,215.995,225.535
304,0,114.916,461.694,1136.87,115.588,190.026,1116.25,-94.2742,361.404,1190.84,-84.9902,258.795,1176.98,74.9158,521.248,855.646,97.8909,483.939,658.183,34.1818,477.742,492.001,-11.1259,399.556,243.735,-80.2875,349.772,203.987,135.814,390.525,193.323,99.3375,141.12,821.275,101.889,163.044,630.306,-61.7293,153.095,499.826,-237.859,194.866,383.269,-308.21,236.636,422.479,-233.636,215.035,228.766
