Trajectories
100
,,Subj:LASI,,,Subj:RASI,,,Subj:LPSI,,,Subj:RPSI,,,Subj:LTHI,,,Subj:LKNE,,,Subj:LTIB,,,Subj:LANK,,,Subj:LHEE,,,Subj:LTOE,,,Subj:RTHI,,,Subj:RKNE,,,Subj:RTIB,,,Subj:RANK,,,Subj:RHEE,,,Subj:RTOE,,,
Frame,Sub Frame,X,Y,Z,X,Y,Z,X,Y,Z,X,Y,Z,X,Y,Z,X,Y,Z,X,Y,Z,X,Y,Z,X,Y,Z,X,Y,Z,X,Y,Z,X,Y,Z,X,Y,Z,X,Y,Z,X,Y,Z,X,Y,Z
,,mm,mm,mm,mm,mm,mm,mm,mm,mm,mm,mm,mm,mm,mm,mm,mm,mm,mm,mm,mm,mm,mm,mm,mm,mm,mm,mm,mm,mm,mm,mm,mm,mm,mm,mm,mm,mm,mm,mm,mm,mm,mm,mm,mm,mm,mm,mm,mm
1,0,123.766,431.356,1107.51,153.476,159.899,1121.69,-72.4782,322.098,1174.78,-58.2357,220.479,1179.6,103.038,494.334,828.6,111.946,480.717,629.347,-21.6927,486.927,537.516,-218.44,411.625,396.457,-279.608,357.171,431.732,-224.917,386.376,227.993,163.8,103.934,846.076,189.082,147.793,656.153,141.961,150.471,445.251,89.1025,200.007,240.714,11.7958,230.553,204.85,228.752,216.535,196.027
2,0,123.283,429.992,1109.39,151.806,158.894,1122.69,-73.3861,322.109,1175.66,-59.4944,219.997,1180.41,105.142,494.046,829.481,123.43,480.971,632.683,-9.51845,485.708,540.862,-207.025,410.6,398.867,-271.204,355.308,432.174,-206.157,389.849,231.6,156.572,102.524,844.74,181.484,147.057,654.708,131.697,150.165,444.211,77.4941,199.622,240.259,0.173159,230.892,204.722,216.908,216.09,195.718
3,0,122.7,428.686,1111.37,150.124,157.939,1123.67,-74.3526,322.033,1176.75,-60.7428,219.48,1181.35,107.259,493.73,830.772,134.3,481.051,636.341,2.22009,484.498,543.915,-195.17,409.72,400.057,-262.098,353.756,431.019,-186.479,392.726,234.491,149.537,101.401,843.585,173.593,146.472,653.442,121.297,149.922,443.374,65.824,199.309,239.922,-11.509,231.13,204.712,205.013,215.694,195.43
4,0,122.017,427.44,1113.46,148.43,157.035,1124.63,-75.3776,321.871,1178.03,-61.9808,218.929,1182.41,109.39,493.385,832.471,144.552,480.956,640.317,13.5229,483.298,546.674,-182.875,408.985,400.028,-252.288,352.509,428.271,-165.899,395.019,236.672,142.697,100.565,842.611,165.409,146.038,652.355,110.763,149.74,442.741,54.0924,199.067,239.703,-23.2518,231.271,204.818,193.067,215.347,195.164
5,0,121.235,426.256,1115.64,146.724,156.181,1125.56,-76.4604,321.623,1179.51,-63.2084,218.344,1183.6,111.538,493.015,834.57,154.18,480.689,644.6,24.3899,482.107,549.136,-170.137,408.392,398.789,-241.765,351.557,423.943,-144.451,396.758,238.153,136.055,100.01,841.815,156.935,145.752,651.448,100.094,149.62,442.312,42.2993,198.894,239.603,-35.0576,231.323,205.043,181.067,215.048,194.918
6,0,120.357,425.135,1117.92,145.008,155.38,1126.47,-77.5998,321.292,1181.18,-64.4251,217.729,1184.92,113.706,492.623,837.058,163.171,480.254,649.166,34.8211,480.927,551.293,-156.953,407.936,396.356,-230.514,350.881,418.061,-122.201,398.002,238.956,129.613,99.7264,841.194,148.177,145.607,650.722,89.2948,149.558,442.088,30.4454,198.786,239.626,-46.9304,231.304,205.386,169.012,214.794,194.689
7,0,119.385,424.082,1120.29,143.282,154.634,1127.36,-78.7929,320.883,1183.03,-65.6303,217.086,1186.35,115.895,492.219,839.915,171.503,479.658,653.98,44.8164,479.76,553.135,-143.313,407.611,392.76,-218.508,350.449,410.672,-99.2414,398.847,239.118,123.371,99.6984,840.741,139.145,145.595,650.18,78.3686,149.55,442.068,18.532,198.738,239.778,-58.875,231.236,205.854,156.897,214.584,194.474
8,0,118.328,423.105,1122.74,141.55,153.946,1128.22,-80.0354,320.403,1185.06,-66.8228,216.423,1187.9,118.107,491.813,843.112,179.144,478.909,658.986,54.3758,478.607,554.646,-129.204,407.409,388.046,-205.713,350.221,401.846,-75.6866,399.419,238.688,117.319,99.9026,840.447,129.853,145.7,649.825,67.3233,149.593,442.252,6.56096,198.742,240.066,-70.896,231.145,206.452,144.715,214.412,194.267
9,0,117.193,422.211,1125.26,139.814,153.321,1129.05,-81.3204,319.862,1187.24,-68.0007,215.749,1189.56,120.337,491.416,846.61,186.054,478.023,664.115,63.4993,477.471,555.808,-114.601,407.318,382.277,-192.082,350.153,391.679,-51.6579,399.869,237.734,111.44,100.308,840.301,120.323,145.905,649.659,56.1702,149.679,442.639,-5.46459,198.785,240.5,-82.9965,231.057,207.195,132.461,214.273,194.061
10,0,115.993,421.41,1127.83,138.079,152.765,1129.84,-82.6383,319.274,1189.56,-69.1612,215.074,1191.32,122.575,491.043,850.364,192.183,477.015,669.285,72.1872,476.354,556.605,-99.4731,407.328,375.542,-177.561,350.195,380.298,-27.2706,400.36,236.335,105.697,100.879,840.292,110.581,146.189,649.688,44.9239,149.798,443.226,-17.5404,198.855,241.093,-95.1768,230.991,208.102,120.127,214.16,193.849
11,0,114.744,420.713,1130.43,136.352,152.283,1130.6,-83.9767,318.656,1191.99,-70.3003,214.414,1193.18,124.803,490.706,854.318,197.478,475.906,674.399,80.4397,475.26,557.017,-83.7778,407.427,367.95,-162.089,350.304,367.861,-2.62017,401.042,234.584,100.043,101.573,840.407,100.662,146.529,649.913,33.6043,149.943,444.011,-29.661,198.935,241.858,-107.434,230.957,209.199,107.707,214.064,193.625
12,0,113.464,420.128,1133.04,134.64,151.882,1131.33,-85.3199,318.029,1194.5,-71.413,213.785,1195.12,126.996,490.416,858.412,201.884,474.718,679.358,88.2577,474.19,557.032,-67.4671,407.604,359.636,-145.606,350.445,354.553,22.2263,402.033,232.585,94.4175,102.348,840.639,90.6073,146.9,650.336,22.2356,150.102,444.988,-41.8199,199.009,242.808,-119.76,230.954,210.516,95.193,213.977,193.383
13,0,112.176,419.665,1135.64,132.953,151.568,1132.02,-86.6496,317.417,1197.07,-72.4925,213.204,1197.13,129.121,490.182,862.579,205.347,473.477,684.058,95.6423,473.148,556.642,-50.491,407.848,350.762,-128.056,350.595,340.592,47.2328,403.401,230.454,88.7551,103.161,840.983,80.4644,147.28,650.954,10.8476,150.265,446.148,-54.0093,199.057,243.956,-132.143,230.968,212.087,82.5809,213.889,193.119
14,0,110.903,419.331,1138.2,131.303,151.347,1132.67,-87.945,316.844,1199.66,-73.5309,212.692,1199.19,131.138,490.01,866.747,207.823,472.208,688.402,102.595,472.135,555.846,-32.8052,408.147,341.512,-109.398,350.744,326.219,72.3907,405.155,228.318,82.9933,103.972,841.439,70.2897,147.648,651.761,-0.524867,150.42,447.482,-66.2208,199.063,245.314,-144.569,230.978,213.941,69.867,213.789,192.833
15,0,109.673,419.131,1140.7,129.702,151.223,1133.29,-89.1838,316.339,1202.23,-74.5185,212.269,1201.28,133,489.904,870.843,209.281,470.938,692.3,109.12,471.153,554.655,-14.3811,408.49,332.091,-89.6144,350.896,311.695,97.7079,407.235,226.315,77.0827,104.751,842.009,60.1472,147.987,652.747,-11.8414,150.558,448.976,-78.4453,199.01,246.89,-157.02,230.952,216.104,57.0496,213.668,192.526
16,0,108.512,419.065,1143.11,128.163,151.201,1133.88,-90.3426,315.928,1204.76,-75.4448,211.955,1203.38,134.651,489.867,874.788,209.71,469.692,695.676,115.219,470.207,553.088,4.78219,408.862,322.716,-68.723,351.062,297.291,123.193,409.523,224.594,70.996,105.472,842.701,50.1088,148.284,653.895,-23.0563,150.671,450.611,-90.6729,198.884,248.689,-169.478,230.86,218.594,44.1292,213.516,192.204
17,0,107.451,419.132,1145.41,126.702,151.282,1134.44,-91.3985,315.64,1207.19,-76.2983,211.768,1205.47,136.03,489.903,878.503,209.122,468.494,698.471,120.897,469.297,551.175,24.6452,409.249,313.611,-46.7919,351.26,283.282,148.837,411.857,223.312,64.7359,106.124,843.52,40.2545,148.534,655.18,-34.1191,150.75,452.369,-102.892,198.674,250.715,-181.925,230.671,221.418,31.1084,213.328,191.875
18,0,106.515,419.325,1147.56,125.333,151.468,1134.97,-92.3297,315.5,1209.5,-77.0672,211.726,1207.52,137.063,490.02,881.905,207.557,467.364,700.647,126.158,468.426,548.953,45.1155,409.632,304.991,-23.9515,351.507,269.932,174.593,414.049,222.632,58.3396,106.701,844.467,30.6722,148.734,656.569,-44.9743,150.79,454.225,-115.091,198.374,252.966,-194.344,230.36,224.577,17.9925,213.099,191.549
19,0,105.73,419.636,1149.54,124.072,151.759,1135.47,-93.117,315.53,1211.65,-77.74,211.842,1209.5,137.672,490.227,884.914,205.087,466.318,702.185,131.009,467.599,546.469,66.0382,409.989,297.049,-0.405604,351.815,257.478,200.36,415.913,222.706,51.8801,107.213,845.537,21.4579,148.888,658.023,-55.5621,150.787,456.153,-127.253,197.981,255.436,-206.718,229.909,228.064,4.78894,212.828,191.236
20,0,105.119,420.052,1151.34,122.93,152.154,1135.95,-93.7445,315.75,1213.62,-78.306,212.128,1211.38,137.776,490.54,887.445,201.816,465.369,703.091,135.453,466.818,543.774,87.1896,410.298,289.944,23.5612,352.188,246.123,225.968,417.288,223.663,45.4637,107.674,846.712,12.7141,149.003,659.494,-65.8188,150.737,458.125,-139.358,197.498,258.118,-219.033,229.312,231.87,-8.49273,212.518,190.946
21,0,104.699,420.56,1152.92,121.921,152.65,1136.39,-94.2006,316.174,1215.36,-78.7567,212.589,1213.12,137.296,490.972,889.421,197.88,464.525,703.389,139.496,466.086,540.922,108.276,410.538,283.784,47.5822,352.618,236.013,251.169,418.058,225.585,39.2239,108.109,847.961,4.5494,149.091,660.926,-75.6775,150.641,460.112,-151.382,196.929,261.003,-231.27,228.572,235.99,-21.8415,212.175,190.685
22,0,104.484,421.145,1154.26,121.054,153.246,1136.8,-94.4787,316.811,1216.85,-79.0861,213.23,1214.68,136.166,491.537,890.769,193.443,463.789,703.125,143.142,465.408,537.966,128.94,410.688,278.621,71.2141,353.089,227.239,275.637,418.163,228.48,33.3134,108.547,849.237,-2.92421,149.163,662.258,-85.0689,150.497,462.085,-163.29,196.286,264.079,-243.41,227.705,240.42,-35.246,211.805,190.455
23,0,104.481,421.791,1155.36,120.335,153.938,1137.15,-94.5781,317.666,1218.07,-79.2915,214.049,1216.04,134.346,492.238,891.433,188.692,463.157,702.36,146.393,464.785,534.959,148.773,410.73,274.44,93.9513,353.574,219.823,298.975,417.608,232.26,27.8943,109.016,850.48,-9.59347,149.231,663.423,-93.922,150.305,464.016,-175.042,195.58,267.335,-255.429,226.733,245.162,-48.6962,211.421,190.253
24,0,104.69,422.484,1156.18,119.766,154.722,1137.45,-94.5038,318.737,1219,-79.3744,215.04,1217.14,131.834,493.068,891.374,183.829,462.625,701.17,149.25,464.222,531.949,167.332,410.654,271.167,115.248,354.044,213.724,320.732,416.451,236.723,23.1279,109.546,851.614,-15.3474,149.306,664.357,-102.165,150.068,465.881,-186.584,194.826,270.762,-267.293,225.685,250.226,-62.1851,211.035,190.07
25,0,105.105,423.212,1156.72,119.348,155.596,1137.67,-94.2669,320.014,1219.6,-79.3409,216.193,1217.96,128.681,494.001,890.583,179.061,462.183,699.639,151.713,463.722,528.981,184.167,410.452,268.674,134.548,354.465,208.845,340.425,414.799,241.549,19.1653,110.163,852.556,-20.081,149.395,664.991,-109.727,149.785,467.657,-197.852,194.036,274.352,-278.955,224.592,255.624,-75.7105,210.658,189.891
26,0,105.713,423.964,1156.97,119.073,156.554,1137.78,-93.8842,321.485,1219.88,-79.2015,217.495,1218.45,124.996,494.994,889.09,174.589,461.82,697.858,153.779,463.288,526.09,198.848,410.123,266.791,151.321,354.808,205.043,357.572,412.785,246.317,16.1392,110.888,853.218,-23.7,149.503,665.266,-116.539,149.457,469.327,-208.77,193.223,278.103,-290.35,223.483,261.374,-89.2758,210.304,189.7
27,0,106.496,424.734,1156.93,118.933,157.594,1137.77,-93.3781,323.129,1219.82,-78.9717,218.928,1218.6,120.955,495.988,886.961,170.6,461.526,695.916,155.447,462.923,523.306,210.996,409.672,265.329,165.098,355.047,202.15,371.731,410.555,250.543,14.1575,111.733,853.516,-26.1247,149.628,665.128,-122.535,149.085,470.881,-219.25,192.397,282.015,-301.392,222.386,267.493,-102.89,209.985,189.48
28,0,107.427,425.518,1156.58,118.914,158.71,1137.6,-92.7756,324.921,1219.41,-78.671,220.475,1218.37,116.791,496.915,884.313,167.247,461.294,693.898,156.713,462.631,520.652,220.31,409.107,264.099,175.514,355.165,199.989,382.54,408.247,253.732,13.2987,112.704,853.377,-27.2946,149.765,664.534,-127.653,148.667,472.315,-229.198,191.566,286.096,-311.964,221.323,274.001,-116.565,209.71,189.22
29,0,108.476,426.316,1155.94,118.998,159.896,1137.26,-92.1077,326.832,1218.66,-78.3227,222.114,1217.74,112.783,497.708,881.3,164.648,461.117,691.879,157.573,462.416,518.142,226.594,408.443,262.93,182.331,355.152,198.388,389.752,405.985,255.448,13.6091,113.795,852.744,-27.172,149.902,663.459,-131.839,148.205,473.63,-238.509,190.732,290.355,-321.922,220.314,280.92,-130.311,209.486,188.919
30,0,109.609,427.132,1155.01,119.165,161.144,1136.73,-91.4077,328.827,1217.57,-77.9524,223.821,1216.7,109.228,498.318,878.109,162.872,460.998,689.92,158.025,462.284,515.787,229.771,407.697,261.691,185.467,355.009,197.201,393.274,403.866,255.378,15.1013,114.992,851.586,-25.7448,150.025,661.893,-135.046,147.695,474.836,-247.077,189.897,294.808,-331.099,219.378,288.272,-144.13,209.318,188.597
31,0,110.788,427.972,1153.82,119.394,162.447,1135.97,-90.7107,330.869,1216.16,-77.5873,225.574,1215.26,106.411,498.717,874.946,161.936,460.941,688.064,158.068,462.239,513.587,229.895,406.888,260.297,185.002,354.745,196.309,393.184,401.96,253.387,17.7539,116.272,849.901,-23.0283,150.118,659.846,-137.234,147.138,475.948,-254.796,189.056,299.475,-339.307,218.527,296.079,-158.006,209.207,188.294
32,0,111.975,428.844,1152.37,119.66,163.794,1134.98,-90.0512,332.92,1214.44,-77.2548,227.349,1213.41,104.571,498.917,872.012,161.805,460.96,686.337,157.7,462.287,511.54,227.143,406.039,258.715,181.174,354.379,195.628,389.731,400.31,249.549,21.512,117.6,847.717,-19.0651,150.16,657.349,-138.378,146.533,476.989,-261.566,188.207,304.375,-346.354,217.772,304.364,-171.893,209.148,188.078
33,0,113.132,429.757,1150.7,119.941,165.173,1133.75,-89.4624,334.942,1212.44,-76.9805,229.124,1211.18,103.867,498.963,869.481,162.387,461.071,684.742,156.92,462.432,509.639,221.8,405.173,256.959,174.353,353.937,195.104,383.32,398.937,244.139,26.288,118.936,845.099,-13.9242,150.133,654.454,-138.46,145.879,477.982,-267.295,187.344,309.523,-352.059,217.115,313.139,-185.701,209.13,188.041
34,0,114.221,430.72,1148.84,120.214,166.572,1132.29,-88.9743,336.896,1210.2,-76.7875,230.878,1208.6,104.346,498.937,867.478,163.549,461.296,683.267,155.728,462.676,507.873,214.236,404.314,255.079,165.017,353.445,194.707,374.473,397.842,237.597,31.964,120.234,842.135,-7.69789,150.022,651.232,-137.478,145.179,478.957,-271.906,186.465,314.933,-356.273,216.55,322.406,-199.294,209.136,188.298
35,0,115.206,431.743,1146.82,120.459,167.978,1130.59,-88.6123,338.748,1207.75,-76.695,232.591,1205.71,105.937,498.942,866.06,165.119,461.656,681.879,154.123,463.021,506.225,204.875,403.485,253.15,153.697,352.934,194.424,363.769,397.012,230.459,38.3935,121.444,838.942,-0.497736,149.812,647.77,-135.438,144.435,479.943,-275.338,185.569,320.606,-358.892,216.063,332.14,-212.475,209.139,188.973
36,0,116.058,432.834,1144.69,120.658,169.376,1128.69,-88.3964,340.468,1205.15,-76.717,234.246,1202.56,108.441,499.084,865.207,166.898,462.168,680.538,152.102,463.464,504.679,194.155,402.709,251.253,140.944,352.431,194.25,351.789,396.419,223.285,45.4065,122.518,835.644,7.55057,149.496,644.171,-132.364,143.652,480.97,-277.548,184.657,326.531,-359.873,215.629,342.286,-224.989,209.102,190.187
37,0,116.75,433.996,1142.49,120.798,170.754,1126.62,-88.3403,342.031,1202.44,-76.862,235.828,1199.22,111.556,499.461,864.822,168.677,462.847,679.194,149.66,464.001,503.217,182.497,402.002,249.465,127.276,351.957,194.177,339.052,396.026,216.574,52.8136,123.412,832.375,16.3131,149.071,640.544,-128.287,142.838,482.062,-278.512,183.739,332.679,-359.237,215.218,352.745,-236.529,208.984,192.042
38,0,117.261,435.233,1140.27,120.867,172.101,1124.41,-88.4506,343.42,1199.68,-77.1325,237.326,1195.74,114.901,500.138,864.748,170.247,463.696,677.797,146.788,464.62,501.821,170.276,401.38,247.842,113.148,351.527,194.198,325.978,395.791,210.706,60.4141,124.092,829.256,25.6538,148.541,637.005,-123.252,142.001,483.244,-278.224,182.823,339.004,-357.07,214.8,363.376,-246.751,208.735,194.602
39,0,117.575,436.543,1138.07,120.859,173.407,1122.12,-88.7278,344.624,1196.92,-77.5253,238.728,1192.21,118.057,501.144,864.783,171.414,464.71,676.302,143.476,465.309,500.471,157.803,400.849,246.421,98.9258,351.147,194.296,312.867,395.665,205.911,68.0043,124.536,826.394,35.4402,147.916,633.668,-117.314,141.154,484.53,-276.696,181.924,345.436,-353.502,214.346,373.998,-255.291,208.309,197.877
40,0,117.683,437.922,1135.94,120.771,174.665,1119.8,-89.1654,345.642,1194.23,-78.0319,240.027,1188.71,120.619,502.46,864.717,172.008,465.872,674.677,139.71,466.051,499.154,145.308,400.413,245.211,84.8766,350.815,194.452,299.898,395.603,202.259,75.388,124.741,823.871,45.5484,147.216,630.641,-110.535,140.31,485.93,-273.955,181.06,351.886,-348.7,213.837,384.4,-261.789,207.664,201.816
41,0,117.581,439.361,1133.92,120.601,175.872,1117.51,-89.752,346.479,1191.67,-78.6394,241.219,1185.31,122.232,504.029,864.361,171.893,467.153,672.902,135.475,466.826,497.857,132.948,400.068,244.204,71.1684,350.524,194.645,287.148,395.561,199.683,82.3875,124.717,821.74,55.867,146.463,628.023,-102.986,139.486,487.446,-270.036,180.247,358.243,-342.834,213.263,394.357,-265.919,206.779,206.303
42,0,117.27,440.85,1132.07,120.353,177.027,1115.31,-90.4714,347.147,1189.29,-79.3317,242.3,1182.1,122.632,505.762,863.574,170.969,468.514,670.976,130.753,467.612,496.573,120.806,399.805,243.375,57.8811,350.261,194.854,274.625,395.505,198.018,88.8546,124.495,820.028,66.2997,145.687,625.903,-94.7399,138.698,489.071,-264.986,179.504,364.382,-336.066,212.623,403.647,-267.413,205.653,211.165
43,0,116.756,442.373,1130.4,120.031,178.132,1113.26,-91.3047,347.665,1187.13,-80.0908,243.269,1179.14,121.669,507.556,862.289,169.175,469.911,668.917,125.528,468.386,495.302,108.906,399.611,242.692,45.0242,350.011,195.064,262.293,395.41,197.045,94.6799,124.116,818.736,76.7662,144.921,624.349,-85.8755,137.966,490.792,-258.857,178.846,370.165,-328.53,211.922,412.061,-266.076,204.318,216.189
44,0,116.051,443.915,1128.95,119.638,179.191,1111.43,-92.231,348.055,1185.26,-80.8982,244.127,1176.5,119.32,509.304,860.514,166.486,471.293,666.759,119.782,469.126,494.046,97.2293,399.466,242.124,32.557,349.759,195.265,250.102,395.264,196.535,99.7997,123.634,817.849,87.2017,144.199,623.415,-76.4711,137.305,492.585,-251.702,178.283,375.447,-320.325,211.167,419.417,-261.806,202.836,221.137
45,0,115.168,445.457,1127.76,119.182,180.209,1109.87,-93.2292,348.342,1183.71,-81.7364,244.875,1174.25,115.677,510.911,858.338,162.909,472.611,664.552,113.503,469.809,492.818,85.7269,399.353,241.644,20.4087,349.493,195.453,238.004,395.065,196.282,104.199,123.107,817.341,97.5548,143.558,623.139,-66.6048,136.735,494.424,-243.578,177.825,380.086,-311.517,210.358,425.557,-254.593,201.297,225.778
46,0,114.123,446.98,1126.82,118.666,181.191,1108.61,-94.2794,348.55,1182.51,-82.5897,245.517,1172.42,110.935,512.304,855.912,158.475,473.819,662.354,106.68,470.418,491.632,74.3355,399.253,241.234,8.49595,349.202,195.629,225.962,394.82,196.125,107.913,122.591,817.188,107.785,143.032,623.536,-56.3526,136.27,496.274,-234.54,177.472,383.945,-302.149,209.49,430.352,-244.516,199.808,229.906
47,0,112.936,448.463,1126.17,118.097,182.143,1107.7,-95.3633,348.705,1181.68,-83.4453,246.058,1171.04,105.357,513.436,853.422,153.229,474.879,660.229,99.3053,470.937,490.509,62.9875,399.146,240.888,-3.26322,348.881,195.804,213.949,394.541,195.96,111.016,122.135,817.369,117.858,142.652,624.609,-45.7872,135.923,498.099,-224.641,177.226,386.905,-292.246,208.546,433.693,-231.732,198.482,233.366
48,0,111.626,449.887,1125.78,117.479,183.068,1107.16,-96.4652,348.828,1181.23,-84.294,246.504,1170.15,99.2384,514.291,851.069,147.228,475.761,658.238,91.377,471.354,489.475,51.6202,399.019,240.609,-14.9406,348.526,195.987,201.948,394.243,195.73,113.62,121.776,817.877,127.744,142.442,626.343,-34.9771,135.707,499.86,-213.931,177.083,388.863,-281.829,207.503,435.489,-216.459,197.416,236.061
49,0,110.215,451.231,1125.67,116.816,183.968,1107.01,-97.5723,348.935,1181.18,-85.1298,246.863,1169.74,92.8729,514.874,849.034,140.53,476.448,656.44,82.8984,471.661,488.557,40.1808,398.862,240.408,-26.593,348.14,196.196,189.946,393.941,195.424,115.858,121.537,818.714,137.411,142.421,628.706,-23.9854,135.627,501.516,-202.458,177.035,389.747,-270.919,206.33,435.667,-198.955,196.682,237.964
50,0,108.722,452.479,1125.83,116.112,184.839,1107.25,-98.6746,349.042,1181.52,-85.9505,247.143,1169.82,86.5155,515.211,847.459,133.189,476.933,654.883,73.8783,471.855,487.784,28.629,398.668,240.301,-38.2618,347.726,196.447,177.929,393.647,195.054,117.872,121.426,819.894,146.825,142.599,631.656,-12.8702,135.687,503.03,-190.262,177.079,389.509,-259.538,205.001,434.177,-179.507,196.31,239.109
51,0,107.168,453.613,1126.22,115.371,185.677,1107.89,-99.7646,349.155,1182.23,-86.7562,247.352,1170.36,80.3581,515.338,846.431,125.256,477.22,653.604,64.332,471.936,487.182,16.938,398.436,240.31,-49.9743,347.29,196.761,165.881,393.371,194.651,119.803,121.435,821.438,155.944,142.977,635.136,-1.68381,135.887,504.367,-177.382,177.207,388.136,-247.706,203.504,431,-158.408,196.287,239.582
52,0,105.573,454.618,1126.83,114.598,186.473,1108.89,-100.837,349.278,1183.28,-87.5492,247.5,1171.34,74.5136,515.294,845.977,116.774,477.324,652.629,54.2815,471.908,486.779,5.0938,398.17,240.453,-61.7472,346.842,197.161,153.787,393.117,194.246,121.775,121.546,823.368,164.72,143.548,639.081,9.52669,136.223,505.495,-163.848,177.417,385.646,-235.431,201.847,426.156,-135.951,196.553,239.501
53,0,103.955,455.484,1127.64,113.798,187.218,1110.24,-101.887,349.41,1184.67,-88.3325,247.595,1172.73,69.0119,515.118,846.069,107.784,477.265,651.97,43.7559,471.777,486.598,-6.90662,397.877,240.752,-73.5901,346.39,197.673,141.631,392.886,193.863,123.888,121.731,825.702,173.098,144.294,643.416,20.7192,136.688,506.389,-149.684,177.707,382.087,-222.702,200.07,419.714,-112.417,197.018,239
54,0,102.334,456.202,1128.62,112.979,187.898,1111.92,-102.91,349.545,1186.34,-89.1089,247.647,1174.48,63.8075,514.839,846.637,98.3224,477.068,651.63,32.7918,471.551,486.659,-19.0567,397.566,241.221,-85.5088,345.948,198.326,129.401,392.675,193.521,126.212,121.96,828.448,181.017,145.192,648.059,31.8562,137.27,507.031,-134.911,178.078,377.539,-209.488,198.249,411.798,-88.0699,197.568,238.205
55,0,100.724,456.765,1129.73,112.151,188.5,1113.88,-103.903,349.675,1188.27,-89.8799,247.662,1176.55,58.7961,514.478,847.581,88.4293,476.761,651.604,21.4331,471.242,486.98,-31.3422,397.248,241.874,-97.5073,345.527,199.15,117.094,392.481,193.225,128.783,122.203,831.598,188.408,146.211,652.924,42.9035,137.958,507.41,-119.543,178.532,372.104,-195.737,196.494,402.585,-63.15,198.091,237.226
56,0,99.1424,457.172,1130.95,111.325,189.012,1116.1,-104.861,349.79,1190.41,-90.6445,247.645,1178.88,53.8384,514.044,848.791,78.1484,476.369,651.881,9.73151,470.859,487.57,-43.7432,396.936,242.72,-109.588,345.142,200.177,104.709,392.3,192.974,131.605,122.431,835.13,195.205,147.316,657.921,53.8298,138.736,507.523,-103.593,179.075,365.906,-181.385,194.947,392.289,-37.8715,198.489,236.137
57,0,97.6035,457.424,1132.24,110.515,189.423,1118.53,-105.776,349.877,1192.73,-91.3988,247.599,1181.43,48.7862,513.539,850.163,67.5311,475.915,652.444,-2.25437,470.412,488.437,-56.2351,396.64,243.765,-121.754,344.807,201.437,92.2538,392.127,192.758,134.649,122.625,839.004,201.341,148.471,662.962,64.6058,139.589,507.372,-87.0747,179.711,359.088,-166.366,193.763,381.146,-12.4181,198.698,234.982
58,0,96.1211,457.526,1133.59,109.738,189.724,1121.13,-106.641,349.922,1195.19,-92.1353,247.525,1184.14,43.5082,512.958,851.609,56.6383,475.418,653.275,-14.4591,469.912,489.582,-68.7906,396.37,245.012,-134.002,344.535,202.958,79.7381,391.96,192.563,137.862,122.768,843.161,206.751,149.64,667.957,75.2027,140.502,506.969,-70.0042,180.446,351.803,-150.626,193.097,369.391,13.0579,198.691,233.778
59,0,94.7087,457.486,1134.96,109.01,189.913,1123.87,-107.446,349.914,1197.74,-92.843,247.422,1186.96,37.9113,512.294,853.068,45.5407,474.891,654.354,-26.8111,469.368,491.001,-81.3811,396.134,246.463,-146.327,344.336,204.764,67.172,391.799,192.373,141.168,122.852,847.53,211.382,150.788,672.823,85.5921,141.46,506.331,-52.4055,181.285,344.209,-134.13,193.086,357.234,38.436,198.483,232.522
60,0,93.379,457.315,1136.33,108.352,189.986,1126.71,-108.18,349.84,1200.35,-93.507,247.284,1189.85,31.9543,511.54,854.503,34.3195,474.343,655.661,-39.2339,468.787,492.686,-93.9775,395.936,248.118,-158.718,344.218,206.87,54.5631,391.643,192.175,144.477,122.872,852.031,215.189,151.884,677.481,95.7446,142.451,505.479,-34.3135,182.231,336.469,-116.874,193.827,344.851,63.6245,198.126,231.204
61,0,92.1445,457.027,1137.69,107.783,189.95,1129.61,-108.83,349.688,1202.99,-94.1098,247.105,1192.76,25.6539,510.692,855.901,23.0649,473.776,657.173,-51.6465,468.177,494.623,-106.552,395.775,249.976,-171.159,344.18,209.287,41.9149,391.492,191.958,147.693,122.826,856.573,218.141,152.905,681.86,105.629,143.463,504.44,-15.7786,183.286,328.739,-98.8796,195.372,332.377,88.5544,197.699,229.827
62,0,91.0175,456.635,1139.03,107.323,189.811,1132.53,-109.382,349.449,1205.63,-94.6311,246.877,1195.65,19.0812,509.752,857.268,11.8752,473.191,658.866,-63.965,467.544,496.795,-119.08,395.65,252.036,-183.629,344.219,212.018,29.2252,391.345,191.715,150.715,122.712,861.066,220.225,153.833,685.897,115.213,144.489,503.239,3.1298,184.45,321.168,-80.2005,197.716,319.916,113.172,197.294,228.412
63,0,90.0098,456.157,1140.32,106.993,189.581,1135.44,-109.822,349.115,1208.22,-95.0495,246.588,1198.47,12.3515,508.727,858.621,0.855738,472.585,660.715,-76.1031,466.895,499.178,-131.539,395.554,254.299,-196.104,344.323,215.061,16.4865,391.194,191.447,153.45,122.526,865.417,221.445,154.658,689.54,124.46,145.523,501.905,22.3203,185.722,313.89,-60.9163,200.801,307.564,137.428,197.004,227.008
64,0,89.1335,455.608,1141.56,106.811,189.274,1138.3,-110.137,348.678,1210.74,-95.343,246.227,1201.19,5.60955,507.629,859.984,-9.88311,471.955,662.69,-87.9737,466.235,501.744,-143.909,395.479,256.765,-208.561,344.477,218.407,3.68665,391.033,191.156,155.812,122.265,869.537,221.825,155.379,692.747,133.333,146.561,500.465,41.6767,187.098,307.02,-41.1334,204.521,295.425,161.268,196.909,225.696
65,0,88.3995,455.004,1142.75,106.793,188.905,1141.07,-110.312,348.136,1213.16,-95.4903,245.783,1203.78,-0.988133,506.472,861.374,-20.2269,471.296,664.754,-99.4889,465.572,504.462,-156.172,395.417,259.431,-220.976,344.663,222.049,-9.18959,390.848,190.853,157.729,121.924,873.342,221.408,156,695.486,141.793,147.604,498.943,61.0572,188.573,300.651,-20.9862,208.731,283.63,184.627,197.073,224.579
66,0,87.8186,454.358,1143.87,106.952,188.491,1143.72,-110.336,347.483,1215.46,-95.4723,245.243,1206.2,-7.28869,505.273,862.804,-30.0583,470.61,666.867,-110.561,464.914,507.297,-168.314,395.361,262.297,-233.33,344.867,225.976,-22.1588,390.63,190.547,159.148,121.5,876.753,220.259,156.535,697.738,149.797,148.654,497.358,80.2937,190.141,294.85,-0.639074,213.262,272.341,207.416,197.535,223.771
67,0,87.4001,453.68,1144.91,107.301,188.045,1146.2,-110.199,346.719,1217.59,-95.2725,244.597,1208.42,-13.1556,504.047,864.276,-39.2591,469.9,668.982,-121.105,464.274,510.208,-180.319,395.307,265.359,-245.607,345.074,230.18,-35.2364,390.365,190.251,160.04,120.994,879.701,218.462,157.002,699.494,157.304,149.714,495.728,99.1932,191.795,289.654,19.7114,217.934,261.741,229.523,198.314,223.386
68,0,87.1518,452.98,1145.88,107.845,187.582,1148.5,-109.895,345.844,1219.54,-94.8786,243.834,1210.41,-18.4761,502.808,865.777,-47.7112,469.173,671.045,-131.036,463.663,513.154,-192.167,395.256,268.612,-257.793,345.28,234.656,-48.4342,390.048,189.975,160.395,120.414,882.123,216.119,157.421,700.755,164.27,150.788,494.062,117.54,193.525,285.07,39.8359,222.574,252.008,250.809,199.409,223.507
69,0,87.0793,452.262,1146.75,108.588,187.11,1150.55,-109.421,344.859,1221.27,-94.2834,242.947,1212.15,-23.1636,501.567,867.277,-55.299,468.443,672.995,-140.273,463.097,516.091,-203.835,395.213,272.045,-269.871,345.485,239.4,-61.7575,389.673,189.726,160.235,119.777,883.97,213.345,157.819,701.531,170.655,151.88,492.367,135.101,195.321,281.079,59.4752,227.028,243.288,271.103,200.806,224.178
70,0,87.1856,451.528,1147.52,109.528,186.635,1152.34,-108.777,343.767,1222.74,-93.4851,241.931,1213.6,-27.1547,500.336,868.734,-61.9117,467.728,674.768,-148.735,462.595,518.974,-215.293,395.19,275.649,-281.822,345.698,244.413,-75.2034,389.24,189.507,159.604,119.113,885.203,210.269,158.219,701.842,176.417,152.994,490.645,151.628,197.17,277.631,78.3434,231.171,235.667,290.207,202.48,225.376
71,0,87.4702,450.776,1148.17,110.661,186.159,1153.83,-107.968,342.574,1223.93,-92.4881,240.783,1214.75,-30.4046,499.126,870.087,-67.4461,467.052,676.296,-156.35,462.175,521.758,-226.497,395.202,279.411,-293.614,345.937,249.701,-88.759,388.75,189.317,158.571,118.459,885.799,207.026,158.646,701.714,181.523,154.131,488.894,166.87,199.059,274.66,96.1327,234.915,229.159,307.899,204.398,227.008
72,0,87.9292,450.002,1148.68,111.976,185.681,1154.98,-107.005,341.284,1224.8,-91.3031,239.504,1215.58,-32.8795,497.948,871.265,-71.8104,466.441,677.511,-163.047,461.86,524.402,-237.395,395.269,283.316,-305.198,346.222,255.271,-102.402,388.211,189.151,157.23,117.86,885.751,203.753,159.119,701.179,185.939,155.291,487.109,180.575,200.973,272.081,112.515,238.209,223.709,323.932,206.522,228.906
73,0,88.5543,449.201,1149.04,113.457,185.192,1155.78,-105.904,339.907,1225.33,-89.9474,238.101,1216.06,-34.5509,496.818,872.189,-74.9272,465.926,678.348,-168.762,461.67,526.866,-247.919,395.414,287.35,-316.503,346.575,261.136,-116.101,387.629,188.999,155.69,117.366,885.073,200.582,159.654,700.274,189.639,156.47,485.284,192.508,202.895,269.804,127.14,241.032,219.212,338.046,208.809,230.839
74,0,89.3333,448.364,1149.21,115.087,184.684,1156.19,-104.684,338.452,1225.48,-88.4444,236.583,1216.2,-35.3905,495.753,872.774,-76.7375,465.535,678.746,-173.44,461.626,529.117,-257.985,395.658,291.5,-327.435,347.018,267.313,-129.819,387.014,188.846,154.071,117.021,883.801,197.637,160.26,699.039,192.603,157.659,483.411,202.456,204.806,267.737,139.642,243.38,215.54,349.978,211.211,232.534
75,0,90.2494,447.486,1149.18,116.842,184.144,1156.21,-103.369,336.932,1225.23,-86.8229,234.964,1215.97,-35.369,494.774,872.941,-77.2037,465.296,678.658,-177.034,461.748,531.127,-267.499,396.025,295.754,-337.871,347.567,273.819,-143.52,386.378,188.677,152.497,116.86,881.991,195.025,160.936,697.517,194.819,158.848,481.484,210.241,206.686,265.796,149.644,245.257,212.574,359.478,213.677,233.71
76,0,91.2821,446.559,1148.93,118.695,183.558,1155.84,-101.989,335.361,1224.57,-85.1167,233.262,1215.38,-34.4561,493.9,872.62,-76.3128,465.233,678.047,-179.505,462.051,532.877,-276.354,396.535,300.107,-347.663,348.235,280.677,-157.165,385.734,188.476,151.088,116.903,879.721,192.831,161.675,695.749,196.281,160.021,479.499,215.732,208.515,263.913,156.783,246.672,210.213,366.333,216.151,234.116
77,0,92.4073,445.58,1148.44,120.617,182.912,1155.07,-100.573,333.757,1223.48,-83.3633,231.5,1214.44,-32.6245,493.152,871.76,-74.0772,465.365,676.894,-180.827,462.548,534.357,-284.434,397.204,304.556,-356.646,349.026,287.907,-170.723,385.097,188.234,149.951,117.145,877.088,191.113,162.458,693.778,196.988,161.16,477.454,218.854,210.269,262.036,160.751,247.646,208.379,370.385,218.577,233.568
78,0,93.5983,444.547,1147.69,122.576,182.19,1153.92,-99.1558,332.137,1221.97,-81.6023,229.704,1213.17,-29.855,492.544,870.334,-70.5361,465.702,675.2,-180.987,463.248,535.567,-291.623,398.048,309.104,-364.643,349.94,295.531,-184.163,384.479,187.952,149.171,117.561,874.202,189.899,163.258,691.643,196.95,162.242,475.349,219.594,211.924,260.138,161.352,248.229,207.001,371.562,220.897,231.979
79,0,94.8268,443.46,1146.67,124.538,181.382,1152.42,-97.7689,330.524,1220.04,-79.8748,227.903,1211.57,-26.1426,492.085,868.344,-65.7539,466.247,672.985,-179.981,464.153,536.514,-297.812,399.074,313.761,-371.477,350.973,303.565,-197.455,383.894,187.653,148.805,118.101,871.178,189.182,164.04,689.381,196.179,163.245,473.19,218.008,213.456,258.21,158.561,248.527,205.984,369.889,223.056,229.378
80,0,96.0637,442.325,1145.36,126.467,180.477,1150.6,-96.4442,328.939,1217.73,-78.2209,226.128,1209.7,-21.5032,491.779,865.826,-59.818,466.995,670.292,-177.819,465.261,537.216,-302.898,400.284,318.541,-376.988,352.116,312.018,-210.555,383.349,187.385,148.878,118.698,868.131,188.922,164.764,687.024,194.694,164.144,470.983,214.215,214.842,256.264,152.573,248.718,205.184,365.505,225.006,225.909
81,0,97.2808,441.15,1143.79,128.329,179.469,1148.5,-95.2104,327.404,1215.07,-76.6789,224.411,1207.57,-15.9792,491.62,862.849,-52.8349,467.93,667.182,-174.526,466.562,537.701,-306.801,401.672,323.463,-381.039,353.358,320.887,-223.393,382.851,187.225,149.372,119.27,865.167,189.045,165.384,684.601,192.519,164.914,468.739,208.398,216.057,254.326,143.829,249.062,204.4,358.661,226.705,221.807
82,0,98.4517,439.944,1141.96,130.09,178.354,1146.18,-94.092,325.941,1212.1,-75.2833,222.78,1205.25,-9.64374,491.597,859.512,-44.925,469.029,663.736,-170.134,468.043,538,-309.463,403.226,328.549,-383.535,354.685,330.15,-235.863,382.405,187.283,150.236,119.732,862.372,189.446,165.852,682.133,189.678,165.534,466.471,200.787,217.083,252.431,132.992,249.869,203.383,349.7,228.121,217.37
83,0,99.5532,438.722,1139.88,131.717,177.135,1143.69,-93.1083,324.571,1208.9,-74.0638,221.266,1202.78,-2.60252,491.695,855.934,-36.2167,470.263,660.051,-164.69,469.682,538.153,-310.852,404.92,333.818,-384.43,356.078,339.765,-247.805,382.021,187.688,151.376,120.004,859.807,189.998,166.124,679.639,186.199,165.983,464.193,191.652,217.904,250.618,120.883,251.434,201.889,339.03,229.234,212.912
84,0,100.566,437.497,1137.59,133.18,175.817,1141.08,-92.2726,323.312,1205.51,-73.044,219.892,1200.21,5.0071,491.892,852.252,-26.8407,471.598,656.232,-158.248,471.454,538.201,-310.963,406.719,339.284,-383.73,357.512,349.661,-258.995,381.719,188.582,152.668,120.017,857.507,190.553,166.16,677.13,182.11,166.248,461.92,181.282,218.51,248.922,108.381,253.945,199.752,327.09,230.038,208.721
85,0,101.477,436.284,1135.13,134.452,174.408,1138.43,-91.5914,322.18,1202.03,-72.2408,218.679,1197.61,13.0203,492.168,848.599,-16.9238,472.997,652.392,-150.872,473.328,538.191,-309.818,408.579,344.949,-381.494,358.956,359.738,-269.147,381.533,190.097,153.958,119.722,855.473,190.956,165.928,674.617,177.438,166.318,459.671,169.969,218.897,247.371,96.2951,257.363,196.979,314.309,230.54,205.021
86,0,102.276,435.095,1132.55,135.511,172.922,1135.79,-91.0652,321.187,1198.54,-71.664,217.64,1195.03,21.2521,492.499,845.104,-6.5837,474.42,648.646,-142.632,475.267,538.165,-307.459,410.446,350.802,-377.832,360.371,369.867,-277.921,381.516,192.341,155.074,119.091,853.682,191.051,165.408,672.105,172.21,166.192,457.46,157.991,219.068,245.986,85.2552,261.336,193.827,301.069,230.76,201.955
87,0,102.961,433.941,1129.9,136.339,171.373,1133.22,-90.6882,320.34,1195.1,-71.3162,216.782,1192.54,29.5082,492.862,841.871,4.0751,475.83,645.106,-133.604,477.233,538.167,-303.943,412.262,356.811,-372.891,361.71,379.889,-284.94,381.739,195.368,155.839,118.12,852.088,190.689,164.592,669.599,166.45,165.873,455.305,145.6,219.037,244.772,75.6201,265.163,190.836,287.684,230.727,199.575
88,0,103.535,432.831,1127.24,136.921,169.778,1130.77,-90.4496,319.642,1191.81,-71.193,216.107,1190.18,37.5969,493.233,838.983,14.9636,477.191,641.877,-123.869,479.182,538.234,-299.336,413.966,362.919,-366.845,362.923,389.625,-289.815,382.287,199.174,156.079,116.827,850.631,189.739,163.489,667.107,160.18,165.372,453.221,133.009,218.822,243.729,67.4426,267.859,188.778,274.381,230.484,197.851
89,0,104.003,431.768,1124.65,137.25,168.153,1128.5,-90.3347,319.092,1188.74,-71.2842,215.609,1188.02,45.3429,493.591,836.49,26.0095,478.468,639.052,-113.51,481.07,538.403,-293.707,415.506,369.046,-359.879,363.961,398.876,-292.185,383.243,203.681,155.639,115.247,849.248,188.092,162.12,664.636,153.424,164.706,451.223,120.386,218.449,242.844,60.4882,268.341,188.516,261.303,230.074,196.695
90,0,104.378,430.751,1122.17,137.323,166.517,1126.44,-90.3262,318.686,1185.95,-71.5743,215.276,1186.09,52.5997,493.912,834.417,37.1562,479.632,636.714,-102.612,482.851,538.701,-287.122,416.835,375.086,-352.175,364.783,407.437,-291.752,384.676,208.746,154.397,113.433,847.883,185.666,160.523,662.199,146.199,163.9,449.328,107.851,217.95,242.101,54.3032,265.699,190.781,248.519,229.545,195.977
91,0,104.672,429.777,1119.88,137.141,164.884,1124.63,-90.4054,318.415,1183.5,-72.0437,215.094,1184.43,59.2608,494.177,832.768,48.3605,480.656,634.929,-91.2644,484.479,539.15,-279.64,417.921,380.911,-343.897,365.358,415.104,-288.307,386.619,214.166,152.27,111.447,846.492,182.41,158.747,659.812,138.524,162.981,447.551,95.4794,217.36,241.48,48.3094,259.503,195.922,236.034,228.941,195.56
92,0,104.902,428.837,1117.84,136.709,163.268,1123.08,-90.554,318.268,1181.44,-72.6703,215.041,1183.07,65.2667,494.369,831.535,59.5892,481.515,633.75,-79.5547,485.912,539.765,-271.314,418.749,386.376,-335.177,365.677,421.686,-281.763,389.055,219.704,149.222,109.358,845.055,178.301,156.849,657.497,130.418,161.98,445.906,83.3071,216.713,240.963,41.8933,250.037,203.712,223.812,228.304,195.313
93,0,105.082,427.92,1116.1,136.04,161.68,1121.81,-90.7551,318.234,1179.8,-73.4306,215.098,1182.04,70.6073,494.471,830.702,70.8144,482.188,633.215,-67.5723,487.109,540.551,-262.19,419.322,391.322,-326.116,365.75,427.009,-272.157,391.907,225.115,145.271,107.237,843.572,173.344,154.894,655.281,121.9,160.931,444.41,71.3351,216.044,240.532,34.4701,238.37,213.289,211.794,227.667,195.133
94,0,105.227,427.014,1114.71,135.147,160.131,1120.83,-90.994,318.297,1178.6,-74.3005,215.24,1181.34,75.321,494.475,830.26,82.0091,482.657,633.345,-55.406,488.038,541.506,-252.309,419.656,395.591,-316.772,365.606,430.929,-259.654,395.04,230.162,140.482,105.154,842.068,167.567,152.947,653.191,112.987,159.868,443.077,59.5397,215.386,240.178,25.5234,226.19,223.285,199.909,227.054,194.944
95,0,105.349,426.105,1113.71,134.048,158.627,1120.13,-91.2593,318.444,1177.86,-75.2571,215.447,1180.97,79.4869,494.373,830.204,93.1419,482.907,634.148,-43.1438,488.67,542.62,-241.709,419.782,399.027,-307.164,365.294,433.329,-244.522,398.274,234.649,134.964,103.175,840.584,161.02,151.07,651.259,103.702,158.823,441.924,47.8806,214.763,239.897,14.6449,215.452,232.122,188.092,226.483,194.706
96,0,105.457,425.183,1113.11,132.764,157.172,1119.71,-91.5424,318.661,1177.56,-76.2785,215.699,1180.95,83.2151,494.164,830.54,104.174,482.925,635.617,-30.872,488.987,543.871,-230.428,419.738,401.489,-297.28,364.87,434.125,-227.106,401.408,238.425,128.858,101.359,839.177,153.765,149.321,649.519,94.0663,157.825,440.967,36.3092,214.198,239.692,1.59354,207.911,238.386,176.287,225.962,194.407
97,0,105.557,424.239,1112.94,131.318,155.77,1119.54,-91.8383,318.934,1177.7,-77.345,215.978,1181.26,86.6332,493.851,831.277,115.054,482.702,637.73,-18.6739,488.978,545.232,-218.504,419.564,402.859,-287.074,364.395,433.269,-207.794,404.244,241.4,122.322,99.7564,837.905,145.876,147.748,648,84.1058,156.9,440.222,24.7756,213.702,239.573,-13.6316,204.698,241.18,164.449,225.494,194.053
98,0,105.652,423.266,1113.19,129.733,154.421,1119.62,-92.1442,319.249,1178.27,-78.4389,216.27,1181.89,89.8718,493.441,832.43,125.72,482.233,640.452,-6.62887,488.641,546.666,-205.975,419.3,403.046,-276.482,363.921,430.741,-186.975,406.618,243.536,115.521,98.4063,836.826,137.433,146.386,646.731,73.8485,156.07,439.705,13.2338,213.283,239.558,-30.7421,206.068,240.324,152.549,225.076,193.665
99,0,105.742,422.265,1113.87,128.035,153.127,1119.92,-92.4598,319.595,1179.23,-79.5445,216.563,1182.82,93.0517,492.947,834.011,136.095,481.517,643.732,5.18895,487.985,548.129,-192.879,418.977,401.99,-265.423,363.49,426.551,-165.014,408.42,244.844,108.609,97.3359,835.987,128.516,145.26,645.738,63.3261,155.349,439.43,1.64627,212.938,239.668,-49.1723,211.393,236.367,140.567,224.701,193.268
100,0,105.824,421.239,1114.95,126.251,151.891,1120.41,-92.7854,319.961,1180.58,-80.6479,216.85,1184.03,96.2717,492.382,836.025,146.09,480.56,647.508,16.7122,487.026,549.572,-179.25,418.619,399.671,-253.806,363.122,420.739,-142.222,409.61,245.376,101.716,96.5594,835.423,119.206,144.381,645.041,52.5732,154.747,439.41,-10.0144,212.661,239.93,-68.1704,219.384,230.397,128.492,224.362,192.881
101,0,105.894,420.199,1116.41,124.407,150.714,1121.08,-93.1215,320.337,1182.26,-81.7363,217.127,1185.5,99.6017,491.767,838.464,155.607,479.37,651.702,27.8817,485.787,550.941,-165.11,418.24,396.098,-241.537,362.819,413.367,-118.847,410.218,245.206,94.9435,96.0783,835.151,109.583,143.749,644.653,41.628,154.269,439.656,-21.7643,212.439,240.37,-86.9446,228.449,223.748,116.321,224.051,192.521
102,0,105.949,419.157,1118.21,122.529,149.601,1121.89,-93.4676,320.715,1184.26,-82.7976,217.391,1187.22,103.078,491.121,841.31,164.541,477.966,656.227,38.6471,484.299,552.18,-150.47,417.843,391.318,-228.52,362.563,404.525,-95.0629,410.337,244.424,88.3544,95.8815,835.175,99.7225,143.353,644.583,30.5316,153.913,440.177,-33.6084,212.254,241.015,-104.82,237.086,217.683,104.052,223.76,192.196
103,0,105.985,418.132,1120.32,120.642,148.556,1122.83,-93.8213,321.089,1186.54,-83.8198,217.643,1189.15,106.706,490.465,844.53,172.784,476.367,660.988,48.9683,482.595,553.237,-135.322,417.42,385.409,-214.66,362.319,394.327,-70.9794,410.102,243.119,81.9765,95.9478,835.484,89.6997,143.172,644.834,19.3282,153.674,440.976,-45.5419,212.089,241.891,-121.356,244.166,213.152,91.6855,223.484,191.904
104,0,106.001,417.144,1122.71,118.774,147.587,1123.88,-94.1775,321.453,1189.07,-84.7905,217.885,1191.28,110.459,489.817,848.079,180.233,474.601,665.882,58.8156,480.712,554.058,-119.64,416.958,378.479,-199.866,362.044,382.912,-46.6469,409.666,241.381,75.8053,96.2476,836.057,79.5858,143.181,645.399,8.06487,153.543,442.054,-57.5517,211.922,243.019,-136.392,249.083,210.673,79.2227,223.218,191.639
105,0,106.001,416.214,1125.32,116.947,146.702,1125.01,-94.528,321.805,1191.81,-85.6963,218.121,1193.58,114.292,489.193,851.905,186.789,472.7,670.805,68.1698,478.691,554.601,-103.377,416.441,370.663,-184.05,361.691,370.447,-22.0706,409.175,239.29,69.8117,96.7457,836.867,69.4516,143.351,646.268,-3.20946,153.506,443.406,-69.6187,211.735,244.418,-150.026,251.745,210.338,66.6645,222.959,191.393
106,0,105.991,415.362,1128.11,115.187,145.909,1126.21,-94.8611,322.143,1194.72,-86.5229,218.354,1196.03,118.142,488.602,855.948,192.368,470.697,675.654,77.0219,476.569,554.828,-86.4708,415.845,362.119,-167.134,361.218,357.124,2.77562,408.744,236.927,63.952,97.4047,837.884,59.3671,143.65,647.423,-14.4438,153.55,445.023,-81.7193,211.512,246.1,-162.539,252.455,211.909,54.0114,222.706,191.155
107,0,105.984,414.608,1131.04,113.516,145.22,1127.47,-95.1618,322.468,1197.78,-87.2548,218.591,1198.61,121.937,488.049,860.144,196.9,468.63,680.329,85.3725,474.385,554.714,-68.8509,415.153,353.032,-149.05,360.593,343.163,27.9354,408.438,234.373,58.1791,98.1876,839.081,49.4033,144.047,648.84,-25.5859,153.658,446.889,-93.8273,211.239,248.071,-174.296,251.745,214.957,41.264,222.456,190.919
108,0,105.995,413.967,1134.07,111.957,144.643,1128.77,-95.4124,322.784,1200.93,-87.8758,218.836,1201.29,125.601,487.533,864.428,200.338,466.538,684.739,93.2302,472.175,554.245,-50.4502,414.344,343.603,-129.748,359.795,328.807,53.4557,408.262,231.727,52.4526,99.0602,840.432,39.6324,144.513,650.488,-36.5826,153.813,448.984,-105.915,210.907,250.334,-185.661,250.203,219,28.4227,222.209,190.678
109,0,106.045,413.45,1137.16,110.53,144.188,1130.09,-95.5923,323.097,1204.15,-88.3689,219.096,1204.05,129.059,487.046,868.733,202.66,464.457,688.804,100.611,469.973,553.42,-31.2188,413.404,334.048,-109.211,358.822,314.317,79.3723,408.164,229.111,46.7487,99.9923,841.913,30.1288,145.023,652.33,-47.3802,154,451.283,-117.955,210.512,252.883,-196.924,248.347,223.611,15.4887,221.965,190.433
110,0,106.159,413.063,1140.26,109.255,143.861,1131.44,-95.68,323.415,1207.38,-88.7177,219.378,1206.85,132.235,486.584,872.99,203.874,462.424,692.455,107.534,467.809,552.249,-11.1395,412.323,324.594,-87.4564,357.684,299.965,105.695,408.044,226.682,41.0663,100.959,843.504,20.9689,145.552,654.326,-57.9249,154.202,453.753,-129.919,210.055,255.709,-208.275,246.551,228.48,2.46397,221.724,190.188
111,0,106.365,412.807,1143.33,108.149,143.669,1132.78,-95.653,323.747,1210.58,-88.9064,219.689,1209.66,135.054,486.142,877.125,204.017,460.473,695.639,114.023,465.711,550.754,9.75544,411.098,315.464,-64.56,356.405,286.022,132.392,407.771,224.631,35.4315,101.942,845.184,12.2316,146.083,656.427,-68.1635,154.403,456.36,-141.78,209.54,258.796,-219.798,245.026,233.43,-10.6477,221.487,189.951
112,0,106.688,412.676,1146.34,107.229,143.615,1134.12,-95.4899,324.107,1213.72,-88.9212,220.037,1212.44,137.44,485.723,881.058,203.161,458.631,698.318,120.104,463.705,548.964,31.3704,409.73,306.872,-40.6627,355.019,272.745,159.375,407.207,223.179,29.8988,102.926,846.93,3.99754,146.598,658.581,-78.0432,154.59,459.065,-153.508,208.976,262.127,-231.484,243.84,238.402,-23.8407,221.257,189.732
113,0,107.158,412.661,1149.23,106.507,143.7,1135.44,-95.171,324.509,1216.72,-88.7511,220.43,1215.15,139.321,485.339,884.703,201.409,456.922,700.469,125.8,461.809,546.917,53.5352,408.233,299.005,-15.9842,353.565,260.365,186.487,406.231,222.555,24.5491,103.901,848.713,-3.65185,147.085,660.728,-87.5118,154.748,461.826,-165.073,208.375,265.676,-243.268,242.96,243.423,-37.1069,221.037,189.541
114,0,107.798,412.75,1151.96,105.995,143.923,1136.72,-94.6797,324.966,1219.55,-88.3888,220.876,1217.75,140.624,485.009,887.966,198.9,455.361,702.083,131.132,460.041,544.656,76.0001,406.624,292.01,9.16986,352.086,249.071,213.492,404.761,222.968,19.4863,104.859,850.498,-10.6356,147.531,662.809,-96.5186,154.864,464.6,-176.444,207.75,269.418,-255.047,242.299,248.564,-50.4366,220.828,189.388
115,0,108.629,412.926,1154.48,105.699,144.28,1137.94,-94.0037,325.496,1222.15,-87.8315,221.384,1220.17,141.287,484.762,890.748,195.797,453.957,703.167,136.118,458.415,542.222,98.4371,404.93,285.982,34.4071,350.622,238.998,240.074,402.766,224.567,14.8312,105.794,852.241,-16.875,147.926,664.757,-105.014,154.926,467.344,-187.586,207.114,273.323,-266.709,241.756,253.911,-63.8182,220.635,189.276
116,0,109.666,413.173,1156.76,105.625,144.765,1139.08,-93.1362,326.113,1224.48,-87.082,221.964,1222.38,141.266,484.627,892.947,192.292,452.713,703.739,140.771,456.939,539.661,120.449,403.186,280.956,59.2552,349.214,230.223,265.841,400.273,227.402,10.7139,106.701,853.889,-22.2956,148.259,666.506,-112.949,154.92,470.016,-198.459,206.477,277.36,-278.147,241.243,259.532,-77.2407,220.458,189.207
117,0,110.917,413.474,1158.74,105.77,145.369,1140.1,-92.0765,326.832,1226.47,-86.1485,222.622,1224.3,140.543,484.632,894.469,188.588,451.621,703.83,145.097,455.619,537.013,141.588,401.43,276.901,83.1779,347.895,222.757,290.341,397.362,231.387,7.26585,107.573,855.378,-26.8294,148.518,667.988,-120.276,154.835,472.577,-209.019,205.848,281.497,-289.266,240.699,265.469,-90.6946,220.298,189.174
118,0,112.381,413.815,1160.37,106.132,146.084,1140.98,-90.8306,327.665,1228.08,-85.0453,223.365,1225.89,139.142,484.789,895.236,184.899,450.669,703.479,149.098,454.455,534.315,161.375,399.701,273.722,105.6,346.692,216.552,313.082,394.153,236.278,4.61106,108.405,856.637,-30.4177,148.693,669.137,-126.951,154.659,474.992,-219.217,205.229,285.703,-299.982,240.093,271.732,-104.174,220.154,189.162
119,0,114.05,414.185,1161.62,106.702,146.898,1141.69,-89.4119,328.619,1229.27,-83.7927,224.198,1227.09,137.135,485.095,895.195,181.434,449.84,702.733,152.767,453.445,531.598,179.331,398.038,271.273,125.937,345.625,211.509,333.561,390.79,241.674,2.85718,109.19,857.592,-33.0124,148.771,669.892,-132.929,154.378,477.231,-228.999,204.615,289.95,-310.222,239.421,278.303,-117.679,220.025,189.154
120,0,115.906,414.574,1162.45,107.465,147.798,1142.18,-87.8411,329.7,1230,-82.4161,225.124,1227.85,134.656,485.524,894.333,178.387,449.111,701.643,156.095,452.582,528.891,195.009,396.472,269.368,143.64,344.706,207.491,351.302,387.416,247.045,2.0878,109.921,858.169,-34.5786,148.738,670.195,-138.169,153.982,479.271,-238.306,203.998,294.216,-319.917,238.698,285.142,-131.214,219.908,189.127
121,0,117.925,414.98,1162.83,108.404,148.772,1142.42,-86.1454,330.905,1230.24,-80.9458,226.143,1228.12,131.897,486.029,892.681,175.925,448.463,700.262,159.068,451.858,526.213,208.024,395.024,267.806,158.226,343.934,204.339,365.891,384.158,251.785,2.35577,110.589,858.296,-35.0957,148.581,670.001,-142.63,153.46,481.096,-247.074,203.361,298.483,-328.994,237.95,292.201,-144.785,219.804,189.064
122,0,120.074,415.402,1162.74,109.496,149.806,1142.38,-84.3586,332.226,1229.97,-79.4158,227.249,1227.86,129.1,486.547,890.322,174.177,447.875,698.642,161.667,451.261,523.582,218.08,393.704,266.391,169.325,343.299,201.889,377.01,381.117,255.292,3.67857,111.186,857.916,-34.558,148.287,669.274,-146.275,152.802,482.697,-255.238,202.681,302.744,-337.373,237.203,299.43,-158.4,219.712,188.956
123,0,122.315,415.847,1162.16,110.716,150.885,1142.02,-82.5191,333.648,1229.17,-77.8621,228.437,1227.06,126.544,487.01,887.392,173.229,447.333,696.833,163.874,450.78,521.01,224.996,392.51,264.954,176.705,342.784,199.988,384.475,378.357,257.051,6.036,111.704,856.986,-32.975,147.844,667.996,-149.069,151.999,484.074,-262.728,201.93,307.001,-344.962,236.48,306.794,-172.057,219.636,188.809
124,0,124.604,416.321,1161.11,112.035,151.993,1141.33,-80.669,335.147,1227.86,-76.3218,229.694,1225.7,124.515,487.354,884.069,173.113,446.829,694.88,165.669,450.403,518.504,228.716,391.427,263.369,180.297,342.361,198.506,388.252,375.91,256.72,9.37069,112.134,855.484,-30.3704,147.244,666.163,-150.982,151.046,485.236,-269.476,201.08,311.268,-351.657,235.789,314.27,-185.734,219.581,188.652
125,0,126.897,416.835,1159.59,113.422,153.116,1140.27,-78.8522,336.696,1226.06,-74.8311,231.004,1223.78,123.277,487.537,880.561,173.807,446.363,692.82,167.033,450.117,516.071,229.315,390.432,261.568,180.202,341.999,197.342,388.473,373.781,254.186,13.5913,112.467,853.416,-26.7812,146.48,663.791,-151.988,149.939,486.198,-275.415,200.103,315.566,-357.347,235.122,321.864,-199.383,219.55,188.543
126,0,129.147,417.401,1157.65,114.844,154.237,1138.84,-77.1123,338.259,1223.78,-73.4238,232.35,1221.33,123.033,487.547,877.085,175.241,445.947,690.682,167.95,449.913,513.715,226.994,389.5,259.535,176.68,341.668,196.423,385.422,371.96,249.595,18.5782,112.694,850.815,-22.2557,145.551,660.917,-152.065,148.679,486.982,-280.479,198.972,319.925,-361.924,234.448,329.596,-212.913,219.543,188.562
127,0,131.308,418.03,1155.32,116.271,155.34,1137.04,-75.4907,339.797,1221.07,-72.1297,233.709,1218.38,123.899,487.404,873.841,177.293,445.596,688.488,168.405,449.783,511.437,222.057,388.606,257.311,170.13,341.339,195.705,379.52,370.423,243.324,24.1915,112.807,847.743,-16.8515,144.46,657.598,-151.198,147.27,487.617,-284.61,197.671,324.38,-365.288,233.714,337.506,-226.185,219.554,188.818
128,0,133.34,418.733,1152.66,117.671,156.411,1134.9,-74.0246,341.27,1218,-70.9738,235.059,1214.97,125.878,487.164,870.99,179.806,445.336,686.253,168.386,449.719,509.239,214.888,387.734,254.973,161.051,340.995,195.164,371.278,369.146,235.933,30.28,112.798,844.287,-10.6331,143.215,653.91,-149.378,145.721,488.133,-287.753,196.191,328.964,-367.366,232.853,345.633,-239,219.562,189.43
129,0,135.203,419.518,1149.75,119.015,157.436,1132.43,-72.7452,342.637,1214.63,-69.9745,236.376,1211.2,128.853,486.907,868.634,182.596,445.193,683.981,167.882,449.719,507.12,205.918,386.875,252.621,149.998,340.625,194.789,361.249,368.103,228.069,36.6905,112.664,840.555,-3.66952,141.829,649.946,-146.606,144.044,488.566,-289.862,194.535,333.705,-368.12,231.79,354.005,-251.104,219.534,190.519
130,0,136.866,420.389,1146.64,120.279,158.403,1129.69,-71.6762,343.861,1211.03,-69.1437,237.635,1207.12,132.589,486.726,866.798,185.463,445.194,681.674,166.885,449.779,505.079,195.587,386.035,250.363,137.535,340.232,194.573,349.975,367.273,220.371,43.277,112.403,836.671,3.96761,140.32,645.814,-142.888,142.257,488.952,-290.9,192.721,338.62,-367.555,230.456,362.619,-262.193,219.419,192.191
131,0,138.303,421.346,1143.43,121.442,159.302,1126.73,-70.8329,344.913,1207.3,-68.4864,238.814,1202.84,136.755,486.71,865.431,188.205,445.359,679.33,165.387,449.896,503.114,184.314,385.228,248.293,124.19,339.825,194.509,337.938,366.634,213.382,49.9081,112.017,832.765,12.2064,138.711,641.632,-138.243,140.38,489.323,-290.839,190.775,343.709,-365.718,228.803,371.432,-271.925,219.153,194.519
132,0,139.496,422.387,1140.19,122.487,160.127,1123.61,-70.2217,345.768,1203.53,-68.0006,239.895,1198.45,140.961,486.929,864.417,190.63,445.703,676.945,163.378,450.069,501.223,172.471,384.476,246.483,110.421,339.422,194.584,325.53,366.164,207.483,56.4725,111.516,828.965,20.9759,137.027,637.523,-132.697,138.437,489.713,-289.661,188.735,348.95,-362.691,226.809,380.35,-279.941,218.663,197.529
133,0,140.433,423.504,1137.01,123.403,160.876,1120.42,-69.8402,346.416,1199.79,-67.6786,240.859,1194.07,144.793,487.424,863.59,192.564,446.229,674.516,160.85,450.294,499.404,160.36,383.806,244.975,96.5936,339.041,194.779,313.029,365.838,202.867,62.8818,110.914,825.387,30.2078,135.3,633.61,-126.285,136.458,490.15,-287.36,186.647,354.299,-358.583,224.488,389.235,-285.889,217.875,201.19
134,0,141.111,424.684,1133.96,124.182,161.549,1117.24,-69.6778,346.854,1196.19,-67.5078,241.698,1189.79,147.864,488.202,862.765,193.86,446.927,672.046,157.791,450.566,497.657,148.212,383.241,243.78,82.9674,338.698,195.073,300.61,365.629,199.548,69.0717,110.231,822.133,39.8366,133.56,630.015,-119.055,134.47,490.657,-283.937,184.558,359.685,-353.508,221.891,397.912,-289.454,216.725,205.413
135,0,141.533,425.912,1131.11,124.824,162.15,1114.15,-69.7169,347.091,1192.81,-67.4717,242.402,1185.71,149.851,489.233,861.768,194.399,447.776,669.542,154.191,450.879,495.981,136.176,382.798,242.883,69.7015,338.405,195.442,288.358,365.505,197.392,75.0001,109.493,819.284,49.8001,131.843,626.847,-111.06,132.505,491.251,-279.408,182.513,365.015,-347.575,219.093,406.184,-290.376,215.172,210.053
136,0,141.706,427.172,1128.52,125.329,162.689,1111.25,-69.9341,347.149,1189.71,-67.5518,242.972,1181.94,150.525,490.458,860.466,194.098,448.743,667.018,150.036,451.222,494.379,124.337,382.482,242.246,56.8652,338.165,195.863,276.289,365.439,196.17,80.6443,108.728,816.895,60.0393,130.183,624.205,-102.363,130.593,491.943,-273.796,180.555,370.177,-340.868,216.186,413.852,-288.473,213.205,214.924
137,0,141.645,428.443,1126.24,125.702,163.174,1108.61,-70.3026,347.055,1186.97,-67.7289,243.409,1178.55,149.775,491.799,858.786,192.9,449.787,664.5,145.313,451.585,492.859,112.72,382.286,241.823,44.4566,337.973,196.317,264.383,365.401,195.611,85.9974,107.966,815.004,70.4974,128.614,622.171,-93.0316,128.763,492.738,-267.131,178.714,375.041,-333.447,213.262,420.728,-283.657,210.851,219.814
138,0,141.367,429.705,1124.31,125.953,163.618,1106.32,-70.7935,346.843,1184.64,-67.9843,243.722,1175.62,147.605,493.165,856.729,190.78,450.861,662.02,140.01,451.954,491.429,101.31,382.191,241.565,32.4237,337.814,196.792,252.597,365.366,195.452,91.064,107.236,813.627,81.1189,127.17,620.809,-83.1409,127.042,493.631,-259.455,177.01,379.471,-325.342,210.401,426.64,-275.93,208.174,224.509
139,0,140.892,430.937,1122.74,126.09,164.034,1104.43,-71.3779,346.551,1182.75,-68.3013,243.921,1173.2,144.134,494.47,854.368,187.736,451.918,659.616,134.118,452.315,490.104,90.064,382.169,241.426,20.6863,337.672,197.282,240.889,365.315,195.469,95.8574,106.562,812.771,91.8484,125.883,620.164,-72.7677,125.455,494.613,-250.811,175.452,383.328,-316.565,207.659,431.442,-265.388,205.27,228.816
140,0,140.243,432.12,1121.56,126.125,164.431,1102.99,-72.0286,346.214,1181.35,-68.6656,244.021,1171.33,139.563,495.635,851.835,183.784,452.912,657.334,127.629,452.654,488.901,78.925,382.187,241.375,9.15359,337.526,197.791,229.219,365.236,195.5,100.397,105.96,812.43,102.629,124.78,620.26,-61.9906,124.021,495.67,-241.247,174.038,386.477,-307.119,205.061,435.01,-252.203,202.256,232.573
141,0,139.442,433.235,1120.77,126.069,164.821,1102.06,-72.7214,345.867,1180.43,-69.0659,244.035,1170.04,134.156,496.6,849.299,178.959,453.802,655.222,120.543,452.956,487.841,67.8329,382.212,241.393,-2.26093,337.356,198.329,217.558,365.12,195.447,104.708,105.44,812.596,113.401,123.883,621.103,-50.8875,122.755,496.779,-230.813,172.753,388.799,-297.015,202.601,437.24,-236.607,199.252,235.672
142,0,138.513,434.264,1120.35,125.933,165.208,1101.66,-73.436,345.537,1180.01,-69.494,243.979,1169.33,128.2,497.326,846.943,173.304,454.558,653.329,112.862,453.211,486.949,56.7326,382.215,241.477,-13.6305,337.147,198.912,205.883,364.965,195.272,108.819,105.002,813.262,124.1,123.21,622.682,-39.5344,121.669,497.915,-219.56,171.579,390.189,-286.276,200.25,438.044,-218.873,196.368,238.058
143,0,137.479,435.191,1120.3,125.728,165.595,1101.79,-74.1562,345.245,1180.08,-69.9442,243.868,1169.19,121.973,497.796,844.937,166.875,455.156,651.698,104.599,453.407,486.247,45.5784,382.175,241.638,-25.0102,336.892,199.563,194.179,364.776,194.978,112.765,104.64,814.422,134.658,122.772,624.967,-28.0027,120.767,499.049,-207.531,170.494,390.57,-274.942,197.96,437.357,-199.294,193.686,239.732
144,0,136.361,436.004,1120.59,125.464,165.979,1102.45,-74.8706,345.001,1180.61,-70.4127,243.714,1169.62,115.716,498.01,843.414,159.73,455.585,650.37,95.7736,453.54,485.762,34.3366,382.082,241.896,-36.4366,336.593,200.306,182.432,364.56,194.597,116.589,104.34,816.071,145.001,122.572,627.912,-16.3585,120.05,500.15,-194.769,169.475,389.89,-263.064,195.679,435.132,-178.165,191.249,240.74
145,0,135.18,436.692,1121.21,125.153,166.355,1103.63,-75.5716,344.808,1181.59,-70.8969,243.526,1170.57,109.613,497.985,842.462,151.936,455.844,649.375,86.4141,453.604,485.516,22.9857,381.937,242.279,-47.9294,336.261,201.171,170.631,364.328,194.172,120.337,104.087,818.207,155.048,122.606,631.458,-4.66106,119.515,501.186,-181.306,168.504,388.126,-250.695,193.364,431.35,-155.767,189.056,241.164
146,0,133.957,437.244,1122.1,124.804,166.713,1105.3,-76.2547,344.659,1182.98,-71.3942,243.31,1172.02,103.78,497.748,842.113,143.559,455.94,648.736,76.558,453.599,485.531,11.515,381.752,242.818,-59.4959,335.915,202.186,158.765,364.09,193.745,124.059,103.864,820.825,164.717,122.86,635.534,7.03784,119.154,502.127,-167.17,167.569,385.288,-237.871,190.996,426.026,-132.358,187.068,241.101
147,0,132.709,437.655,1123.26,124.429,167.041,1107.41,-76.9177,344.539,1184.74,-71.901,243.07,1173.9,98.2632,497.332,842.351,134.67,455.886,648.464,66.2513,453.527,485.822,-0.0767817,381.546,243.543,-71.1353,335.581,203.379,146.825,363.858,193.352,127.808,103.657,823.917,173.919,123.316,640.059,18.6943,118.954,502.942,-152.375,166.666,381.413,-224.602,188.591,419.213,-108.165,185.218,240.654
148,0,131.455,437.921,1124.63,124.038,167.324,1109.94,-77.5596,344.429,1186.83,-72.4119,242.806,1176.18,93.0477,496.771,843.117,125.343,455.701,648.56,55.5479,453.391,486.401,-11.7841,381.341,244.478,-82.8427,335.289,204.775,134.805,363.641,193.013,131.63,103.454,827.469,182.566,123.948,644.945,30.2721,118.903,503.606,-136.931,165.8,376.568,-210.862,186.2,411.002,-83.3831,183.424,239.913
149,0,130.211,438.041,1126.2,123.645,167.549,1112.82,-78.1791,344.307,1189.2,-72.9189,242.513,1178.8,88.0729,496.093,844.326,115.652,455.405,649.016,44.5089,453.198,487.274,-23.5961,381.162,245.643,-94.6125,335.068,206.399,122.7,363.444,192.737,135.564,103.251,831.454,190.572,124.724,650.098,41.7423,118.984,504.097,-120.839,164.984,370.849,-196.592,183.92,401.522,-58.1738,181.613,238.953
150,0,128.994,438.017,1127.92,123.262,167.703,1116.01,-78.7738,344.146,1191.82,-73.4114,242.184,1181.69,83.2507,495.324,845.877,105.673,455.017,649.812,33.201,452.951,488.441,-35.4986,381.029,247.048,-106.44,334.942,208.269,110.509,363.27,192.523,139.629,103.049,835.835,197.855,125.611,655.422,53.0821,119.181,504.401,-104.098,164.236,364.372,-181.701,181.878,390.931,-32.6675,179.731,237.821
151,0,127.819,437.852,1129.78,122.905,167.777,1119.44,-79.3392,343.926,1194.64,-73.8756,241.813,1184.82,78.4848,494.479,847.667,95.4829,454.555,650.923,21.6958,452.657,489.895,-47.4749,380.958,248.695,-118.321,334.931,210.4,98.2306,363.116,192.361,143.824,102.853,840.56,204.342,126.571,660.82,64.2735,119.477,504.506,-86.7059,163.579,357.275,-166.084,180.22,379.401,-6.96607,177.76,236.55
152,0,126.702,437.554,1131.73,122.59,167.764,1123.07,-79.8681,343.625,1197.6,-74.2952,241.391,1188.12,73.6889,493.567,849.602,85.1603,454.031,652.315,10.0678,452.32,491.624,-59.5068,380.956,250.579,-130.254,335.042,212.802,85.8645,362.978,192.234,148.118,102.672,845.562,209.97,127.569,666.196,75.3019,119.858,504.411,-68.6652,163.038,349.712,-149.635,179.095,367.112,18.8523,175.724,235.158
153,0,125.658,437.133,1133.74,122.336,167.661,1126.84,-80.3506,343.227,1200.67,-74.6516,240.907,1191.53,68.7988,492.589,851.6,74.7854,453.457,653.952,-1.60612,451.944,493.609,-71.5752,381.021,252.69,-142.235,335.273,215.48,73.4087,362.846,192.124,152.453,102.513,850.759,214.695,128.57,671.461,86.154,120.31,504.117,-49.9884,162.639,341.851,-132.267,178.631,354.239,44.7276,173.685,233.663
154,0,124.702,436.602,1135.79,122.162,167.472,1130.69,-80.7738,342.723,1203.8,-74.9253,240.353,1195,63.7812,491.545,853.598,64.4406,452.838,655.79,-13.2482,451.532,495.826,-83.66,381.145,255.013,-154.258,335.612,218.435,60.8594,362.709,192.014,156.741,102.379,856.058,218.488,129.543,676.529,96.8165,120.819,503.632,-30.7036,162.403,333.862,-113.92,178.915,340.952,70.6104,171.734,232.095
155,0,123.847,435.973,1137.85,122.085,167.202,1134.57,-81.1222,342.108,1206.94,-75.0959,239.723,1198.49,58.6363,490.43,855.547,54.2109,452.177,657.784,-24.7803,451.086,498.245,-95.7406,381.311,257.53,-166.315,336.037,221.663,48.2106,362.556,191.888,160.871,102.269,861.354,221.345,130.465,681.324,107.274,121.378,502.97,-10.8598,162.348,325.92,-94.5798,179.982,327.42,96.4534,169.983,230.504
156,0,123.108,435.262,1139.9,122.124,166.862,1138.41,-81.3787,341.382,1210.06,-75.1438,239.012,1201.93,53.3951,489.244,857.416,44.1848,451.474,659.887,-36.1248,450.607,500.835,-107.796,381.501,260.227,-178.392,336.519,225.157,35.4555,362.374,191.731,164.716,102.173,866.535,223.282,131.314,685.779,117.507,121.98,502.147,9.46852,162.485,318.191,-74.2815,181.799,313.823,122.203,168.54,228.967
157,0,122.498,434.486,1141.89,122.297,166.464,1142.18,-81.5254,340.552,1213.1,-75.0514,238.215,1205.29,48.1148,487.985,859.185,34.4545,450.729,662.048,-47.2049,450.098,503.559,-119.803,381.692,263.089,-190.473,337.028,228.908,22.5866,362.155,191.536,168.141,102.071,871.486,224.344,132.081,689.835,127.492,122.619,501.179,30.177,162.82,310.826,-53.1179,184.268,300.362,147.792,167.503,227.586
158,0,122.029,433.659,1143.8,122.62,166.022,1145.8,-81.5445,339.627,1216.03,-74.8033,237.332,1208.5,42.8716,486.661,860.845,25.1161,449.942,664.218,-57.9451,449.56,506.376,-131.74,381.863,266.104,-202.539,337.531,232.907,9.59857,361.888,191.299,171.021,101.939,876.093,224.596,132.76,693.446,137.199,123.295,500.086,51.1294,163.355,303.957,-31.2419,187.241,287.272,173.13,166.942,226.481
159,0,121.71,432.796,1145.6,123.105,165.55,1149.23,-81.42,338.62,1218.8,-74.3881,236.363,1211.52,37.7538,485.28,862.394,16.2689,449.116,666.345,-68.2709,449,509.248,-143.583,381.997,269.263,-214.567,338,237.147,-3.51054,361.569,191.023,173.246,101.746,880.249,224.129,133.353,696.575,146.592,124.008,498.883,72.1561,164.084,297.687,-8.86526,190.53,274.81,198.102,166.895,225.773
160,0,121.549,431.91,1147.27,123.762,165.061,1152.4,-81.1382,337.544,1221.37,-73.7984,235.309,1214.3,32.8555,483.857,863.831,8.01458,448.26,668.375,-78.1098,448.423,512.13,-155.305,382.081,272.561,-226.533,338.414,241.622,-16.7377,361.194,190.717,174.74,101.465,883.855,223.054,133.87,699.196,155.631,124.76,497.584,93.0555,164.999,292.084,13.747,193.938,263.244,222.565,167.368,225.567
161,0,121.553,431.009,1148.76,124.598,164.565,1155.27,-80.69,336.412,1223.68,-73.032,234.174,1216.79,28.2719,482.409,865.156,0.454954,447.384,670.255,-87.3906,447.84,514.98,-166.874,382.108,275.993,-238.409,338.757,246.329,-30.0736,360.761,190.396,175.47,101.071,886.828,221.501,134.325,701.294,164.268,125.553,496.199,113.596,166.088,287.179,36.2869,197.28,252.816,246.347,168.333,225.931
162,0,121.725,430.101,1150.05,125.614,164.068,1157.78,-80.0709,335.235,1225.7,-72.0916,232.961,1218.94,24.0962,480.954,866.362,-6.31031,446.507,671.931,-96.0443,447.263,517.756,-178.255,382.078,279.554,-250.163,339.022,251.271,-43.5032,360.274,190.077,175.449,100.554,889.104,219.608,134.734,702.861,172.454,126.389,494.735,133.522,167.336,282.964,58.4182,200.413,243.713,269.25,169.741,226.875
163,0,122.062,429.189,1151.11,126.806,163.572,1159.87,-79.2822,334.023,1227.37,-70.9856,231.673,1220.7,20.418,479.513,867.431,-12.1868,445.652,673.346,-104.004,446.709,520.414,-189.402,381.997,283.238,-261.754,339.207,256.451,-57.0055,359.736,189.78,174.745,99.9158,890.635,217.526,135.118,703.899,180.134,127.271,493.193,152.557,168.728,279.394,79.7918,203.246,236.025,291.05,171.524,228.338
164,0,122.561,428.274,1151.9,128.169,163.076,1161.51,-78.3321,332.783,1228.66,-69.7278,230.314,1222.05,17.3216,478.102,868.336,-17.0885,444.849,674.447,-111.205,446.196,522.915,-200.259,381.875,287.033,-273.13,339.317,261.876,-70.5559,359.155,189.522,173.475,99.1787,891.401,215.404,135.496,704.416,187.255,128.199,491.572,170.416,170.246,276.392,100.058,205.753,229.737,311.502,173.607,230.178
165,0,123.212,427.351,1152.39,129.69,162.572,1162.65,-77.235,331.518,1229.51,-68.3369,228.888,1222.94,14.8855,476.74,869.03,-20.9414,444.129,675.18,-117.588,445.747,525.222,-210.759,381.727,290.926,-284.223,339.358,267.555,-84.1283,358.541,189.312,171.801,98.3799,891.402,213.387,135.887,704.428,193.763,129.17,489.867,186.814,171.871,273.857,118.875,207.962,224.72,330.343,175.91,232.187
166,0,124.004,426.417,1152.56,131.353,162.048,1163.26,-76.012,330.229,1229.89,-66.8367,227.4,1223.33,13.1808,475.444,869.457,-23.6867,443.527,675.492,-123.094,445.384,527.302,-220.823,381.573,294.898,-294.947,339.34,273.499,-97.6972,357.906,189.151,169.914,97.5702,890.663,211.608,136.305,703.958,199.61,130.179,488.072,201.474,173.584,271.672,135.908,209.944,220.767,347.297,178.354,234.099
167,0,124.918,425.463,1152.37,133.136,161.493,1163.31,-74.6903,328.914,1229.77,-65.2551,225.854,1223.22,12.2693,474.229,869.547,-25.2833,443.076,675.34,-127.673,445.131,529.126,-230.361,381.436,298.93,-305.196,339.273,279.719,-111.24,357.262,189.03,168.023,96.8072,889.232,210.182,136.76,703.033,204.75,131.218,486.18,214.144,175.363,269.717,150.826,211.788,217.62,362.082,180.868,235.624
168,0,125.934,424.482,1151.82,135.016,160.888,1162.8,-73.3019,327.571,1229.12,-63.6232,224.256,1222.58,12.2011,473.112,869.224,-25.71,442.809,674.686,-131.279,445.012,530.673,-239.274,381.341,303,-314.843,339.173,286.228,-124.737,356.621,188.928,166.333,96.1467,887.179,209.203,137.254,701.686,209.145,132.274,484.186,224.606,177.184,267.881,163.304,213.575,215.025,374.425,183.386,236.481
169,0,127.027,423.465,1150.87,136.964,160.218,1161.72,-71.883,326.199,1227.92,-61.975,222.615,1221.43,13.0119,472.113,868.416,-24.9665,442.749,673.502,-133.871,445.049,531.929,-247.459,381.314,307.092,-323.748,339.055,293.038,-138.173,355.99,188.823,165.028,95.6342,884.59,208.736,137.784,699.955,212.765,133.331,482.088,232.69,179.02,266.07,173.03,215.361,212.766,384.078,185.85,236.438
170,0,128.17,422.408,1149.53,138.949,159.466,1160.1,-70.472,324.795,1226.18,-60.3458,220.941,1219.77,14.7194,471.248,867.065,-23.0736,442.916,671.776,-135.42,445.261,532.888,-254.815,381.385,311.197,-331.759,338.943,300.162,-151.531,355.375,188.693,164.255,95.2968,881.569,208.814,138.337,697.883,215.587,134.371,479.886,238.283,180.842,264.215,179.726,217.156,210.694,390.842,188.214,235.348
171,0,129.334,421.305,1147.79,140.939,158.62,1157.95,-69.1079,323.361,1223.9,-58.7711,219.247,1217.63,17.3208,470.535,865.132,-20.0719,443.318,669.513,-135.902,445.662,533.552,-261.247,381.583,315.314,-338.724,338.863,307.611,-164.789,354.777,188.532,164.107,95.137,878.229,209.437,138.893,695.517,217.599,135.37,477.587,241.341,182.618,262.275,183.188,218.926,208.74,394.589,190.438,233.173
172,0,130.489,420.155,1145.67,142.899,157.668,1155.34,-67.8286,321.9,1221.12,-57.2857,217.549,1215.05,20.7897,469.99,862.612,-16.0197,443.953,666.736,-135.305,446.262,533.934,-266.675,381.935,319.456,-344.5,338.848,315.395,-177.911,354.191,188.355,164.619,95.1311,874.687,210.57,139.424,692.907,218.797,136.305,475.199,241.889,184.314,260.24,183.329,220.605,206.906,395.288,192.493,229.992
173,0,131.604,418.961,1143.19,144.794,156.606,1152.31,-66.6685,320.421,1217.86,-55.9222,215.865,1212.08,25.0751,469.624,859.537,-10.9896,444.807,663.488,-133.625,447.066,534.054,-271.032,382.464,323.648,-348.964,338.934,323.514,-190.836,353.612,188.209,165.763,95.2305,871.059,212.144,139.896,690.105,219.184,137.151,472.738,240.026,185.894,258.128,180.219,222.104,205.245,393.021,194.354,225.996
174,0,132.651,417.728,1140.37,146.589,155.433,1148.94,-65.6578,318.934,1214.2,-54.7101,214.216,1208.79,30.1003,469.444,855.976,-5.06515,445.859,659.834,-130.87,448.07,533.943,-274.274,383.186,327.926,-352.025,339.153,331.961,-203.463,353.036,188.178,167.449,95.3675,867.452,214.058,140.273,687.162,218.772,137.881,470.223,235.921,187.325,255.977,174.106,223.343,203.835,387.99,196,221.462
175,0,133.604,416.468,1137.27,148.251,154.154,1145.32,-64.8201,317.454,1210.2,-53.6744,212.623,1205.26,35.7636,469.446,852.037,1.664,447.077,655.859,-127.059,449.265,533.638,-276.378,384.105,332.336,-353.628,339.532,340.714,-215.643,352.466,188.378,169.539,95.4636,863.958,216.185,140.516,684.13,217.577,138.474,467.675,229.8,188.574,253.839,165.408,224.262,202.752,380.511,197.415,216.713
176,0,134.439,415.193,1133.94,149.748,152.78,1141.52,-64.1718,315.998,1205.96,-52.8351,211.109,1201.56,41.9412,469.623,847.856,9.10602,448.422,651.663,-122.22,450.634,533.183,-277.34,385.209,336.924,-353.765,340.082,349.734,-227.169,351.915,188.948,171.853,95.4392,860.65,218.375,140.584,681.053,215.622,138.909,465.119,221.937,189.615,251.771,154.675,224.84,202.044,370.987,198.584,212.073
177,0,135.139,413.918,1130.45,151.052,151.327,1137.65,-63.7215,314.586,1201.55,-52.2062,209.696,1197.8,48.4907,469.954,843.585,17.171,449.854,647.362,-116.394,452.152,532.629,-277.176,386.473,341.731,-352.474,340.796,358.96,-237.773,351.419,190.037,174.19,95.2236,857.576,220.465,140.446,677.974,212.932,139.17,462.578,212.634,190.428,249.828,142.517,225.095,201.725,359.879,199.494,207.824
178,0,135.689,412.662,1126.88,152.14,149.814,1133.8,-63.47,313.239,1197.1,-51.7958,208.404,1194.05,55.2578,470.414,839.384,25.7738,451.328,643.08,-109.631,453.79,532.029,-275.914,387.853,346.788,-349.835,341.641,368.303,-247.134,351.03,191.779,176.34,94.7628,854.761,222.286,140.073,674.927,209.534,139.247,460.08,202.205,191.001,248.055,129.532,225.075,201.764,347.658,200.141,204.178
179,0,136.081,411.44,1123.3,152.991,148.265,1130.06,-63.4106,311.976,1192.71,-51.6057,207.248,1190.42,62.083,470.969,835.4,34.8367,452.803,638.942,-101.991,455.511,531.437,-273.596,389.291,352.104,-345.968,342.564,377.651,-254.897,350.825,194.272,178.097,94.0254,852.206,223.671,139.448,671.941,205.455,139.137,457.648,190.953,191.333,246.483,116.238,224.851,202.093,334.769,200.526,201.25
180,0,136.312,410.27,1119.81,153.591,146.704,1126.52,-63.5301,310.817,1188.47,-51.6316,206.242,1186.98,68.8113,471.583,831.76,44.2897,454.241,635.075,-93.5427,457.275,530.908,-270.266,390.721,357.664,-341.018,343.492,386.868,-260.695,350.896,197.561,179.279,93.0044,849.893,224.465,138.567,669.04,200.724,138.844,455.304,179.161,191.433,245.128,103.026,224.497,202.623,321.594,200.663,199.067
181,0,136.385,409.165,1116.49,153.933,145.155,1123.26,-63.8102,309.778,1184.5,-51.8642,205.391,1183.82,75.3009,472.216,828.561,54.0706,455.606,631.598,-84.3651,459.036,530.495,-265.971,392.073,363.42,-335.145,344.341,395.795,-264.182,351.339,201.622,179.73,91.7171,847.792,224.533,137.436,666.24,195.369,138.381,453.069,167.07,191.318,243.993,90.1423,224.078,203.257,308.432,200.574,197.572
182,0,136.304,408.137,1113.42,154.011,143.642,1120.33,-64.2291,308.872,1180.88,-52.2894,204.698,1181,81.4321,472.83,825.868,64.1235,456.87,628.619,-74.5441,460.749,530.247,-260.759,393.283,369.295,-328.513,345.029,404.259,-265.069,352.235,206.363,179.335,90.2015,845.865,223.764,136.08,663.556,189.415,137.766,450.962,154.878,191.017,243.063,77.6965,223.645,203.912,295.483,200.293,196.651
183,0,136.08,407.192,1110.68,153.831,142.185,1117.78,-64.7635,308.108,1177.69,-52.8896,204.157,1178.58,87.1149,473.392,823.715,74.3964,458.011,626.232,-64.1727,462.367,530.208,-254.672,394.296,375.176,-321.275,345.486,412.076,-263.147,353.636,211.624,178.02,88.5121,844.08,222.077,134.535,661.001,182.888,137.025,449,142.73,190.562,242.316,65.6912,223.227,204.524,282.862,199.86,196.16
184,0,135.725,406.333,1108.35,153.398,140.802,1115.67,-65.3897,307.49,1175,-53.6444,203.76,1176.61,92.2933,473.874,822.111,84.8383,459.01,624.516,-53.3502,463.845,530.416,-247.748,395.075,380.926,-313.562,345.665,419.064,-258.314,355.542,217.198,175.757,86.7137,842.41,219.422,132.852,658.586,175.813,136.19,447.195,130.721,189.992,241.726,54.0575,222.841,205.055,270.6,199.318,195.949
185,0,135.255,405.559,1106.48,152.726,139.504,1114,-66.0861,307.016,1172.87,-54.5322,203.491,1175.11,96.9469,474.257,821.051,95.3966,459.854,623.531,-42.1808,465.141,530.899,-240.021,395.603,386.382,-305.48,345.553,425.048,-250.58,357.896,222.851,172.565,84.876,840.843,215.782,131.089,656.325,168.214,135.296,445.562,118.903,189.347,241.263,42.6916,222.488,205.495,258.671,198.712,195.885
186,0,134.682,404.861,1105.11,151.832,138.301,1112.78,-66.8336,306.68,1171.32,-55.5308,203.331,1174.1,101.089,474.53,820.52,106.014,460.534,623.322,-30.772,466.219,531.678,-231.521,395.885,391.369,-297.101,345.167,429.869,-240.064,360.58,228.348,168.503,83.0693,839.383,211.167,129.314,654.231,160.118,134.382,444.111,107.285,188.665,240.898,31.4844,222.17,205.848,247.01,198.077,195.864
187,0,134.023,404.232,1104.27,150.735,137.197,1112,-67.6171,306.471,1170.38,-56.6184,203.26,1173.59,104.761,474.692,820.505,116.625,461.044,623.912,-19.2334,467.049,532.762,-222.28,395.944,395.71,-288.464,344.558,433.388,-226.982,363.432,233.469,163.669,81.3596,838.046,205.612,127.594,652.321,151.549,133.485,442.853,95.8486,187.982,240.61,20.3408,221.884,206.132,235.534,197.445,195.816
188,0,133.291,403.658,1103.99,149.458,136.19,1111.66,-68.4257,306.374,1170.04,-57.7746,203.254,1173.57,108.025,474.75,820.995,127.159,461.379,625.309,-7.67411,467.609,534.148,-212.329,395.819,399.236,-279.577,343.797,435.493,-211.621,366.263,238.032,158.189,79.8071,836.862,199.173,125.999,650.613,142.534,132.644,441.799,84.5542,187.328,240.384,9.18898,221.632,206.369,224.157,196.839,195.705
189,0,132.497,403.127,1104.26,148.024,135.279,1111.72,-69.2528,306.372,1170.3,-58.9803,203.29,1174.01,110.958,474.714,821.985,137.533,461.536,627.501,3.79906,467.883,535.822,-201.708,395.557,401.798,-270.417,342.966,436.1,-194.314,368.893,241.901,152.21,78.4639,835.865,191.923,124.589,649.122,133.102,131.892,440.957,73.3504,186.73,240.212,-2.01858,221.414,206.584,212.802,196.272,195.521
190,0,131.651,402.625,1105.07,146.457,134.458,1112.14,-70.096,306.442,1171.13,-60.2188,203.346,1174.91,113.638,474.6,823.476,147.658,461.516,630.46,15.084,467.866,537.755,-190.458,395.208,403.275,-260.94,342.144,435.156,-175.409,371.172,244.991,145.886,77.3728,835.09,183.942,123.417,647.868,123.283,131.259,440.339,62.1824,186.206,240.096,-13.3093,221.232,206.801,201.407,195.754,195.277
191,0,130.761,402.142,1106.4,144.783,133.72,1112.89,-70.9556,306.563,1172.51,-61.475,203.401,1176.21,116.144,474.426,825.468,157.438,461.321,634.136,26.0859,467.563,539.907,-178.628,394.82,403.582,-251.082,341.397,432.636,-155.251,373.01,247.262,139.37,76.5672,834.566,175.318,122.523,646.868,113.111,130.769,439.952,50.9985,185.767,240.046,-24.6969,221.084,207.047,189.93,195.287,194.991
192,0,129.832,401.669,1108.21,143.025,133.06,1113.92,-71.8345,306.712,1174.37,-62.7358,203.438,1177.9,118.543,474.21,827.96,166.772,460.954,638.464,36.7194,466.984,542.225,-166.266,394.433,402.672,-240.766,340.765,428.546,-134.151,374.388,248.721,132.794,76.0702,834.313,166.143,121.934,646.135,102.622,130.437,439.807,39.7545,185.42,240.082,-36.1871,220.964,207.349,178.343,194.874,194.687
193,0,128.869,401.2,1110.48,141.207,132.472,1115.2,-72.7362,306.868,1176.69,-63.9898,203.443,1179.92,120.894,473.968,830.944,175.555,460.422,643.362,46.9107,466.149,544.644,-153.421,394.074,400.537,-229.906,340.262,422.917,-112.381,375.363,249.408,126.269,75.8937,834.335,156.504,121.661,645.682,91.8517,130.272,439.911,28.4167,185.166,240.225,-47.782,220.867,207.741,166.634,194.516,194.385
194,0,127.876,400.737,1113.15,139.35,131.952,1116.68,-73.6642,307.009,1179.42,-65.2264,203.406,1182.25,123.24,473.719,834.405,183.686,459.734,648.732,56.5995,465.084,547.091,-140.129,393.762,397.209,-218.411,339.874,415.807,-90.1591,376.056,249.39,119.868,76.0385,834.625,146.491,121.7,645.519,80.8422,130.275,440.27,16.9635,185,240.506,-59.4818,220.787,208.259,154.8,194.214,194.098
195,0,126.856,400.282,1116.17,137.475,131.498,1118.32,-74.6202,307.12,1182.48,-66.4361,203.322,1184.83,125.61,473.476,838.316,191.067,458.904,654.463,65.7399,463.821,549.485,-126.416,393.498,392.747,-206.194,339.565,407.3,-67.6461,376.63,248.757,113.628,76.4933,835.164,136.185,122.032,645.651,69.6355,130.44,440.891,5.38479,184.914,240.955,-71.2853,220.72,208.945,142.843,193.971,193.832
196,0,125.814,399.844,1119.5,135.602,131.11,1120.08,-75.6034,307.188,1185.84,-67.6094,203.189,1187.64,128.02,473.253,842.64,197.606,457.946,660.435,74.3015,462.396,551.745,-112.288,393.279,387.24,-193.166,339.288,397.5,-44.9451,377.268,247.607,107.551,77.2351,835.925,125.669,122.628,646.08,58.2764,130.752,441.774,-6.31844,184.895,241.603,-83.1891,220.667,209.845,130.766,193.787,193.587
197,0,124.757,399.435,1123.08,133.749,130.791,1121.94,-76.6095,307.204,1189.44,-68.7368,203.012,1190.63,130.474,473.057,847.328,203.221,456.881,666.522,82.2688,460.848,553.79,-97.732,393.091,380.8,-179.249,338.991,386.539,-22.1065,378.134,246.047,101.605,78.2303,836.876,115.018,123.446,646.803,46.8112,131.193,442.92,-18.1362,184.93,242.481,-95.1863,220.63,211.003,118.572,193.663,193.358
198,0,123.694,399.067,1126.86,131.934,130.546,1123.87,-77.6304,307.168,1193.22,-69.8083,202.797,1193.77,132.96,472.895,852.32,207.845,455.728,672.597,89.641,459.219,555.542,-82.7132,392.919,373.558,-164.37,338.631,374.569,0.863975,379.349,244.187,95.7363,79.4357,837.986,104.304,124.439,647.813,35.2877,131.737,444.321,-30.0515,185.002,243.615,-107.266,220.615,212.466,106.264,193.594,193.139
199,0,122.637,398.757,1130.78,130.174,130.379,1125.85,-78.6537,307.082,1197.12,-70.8134,202.558,1197.03,135.455,472.764,857.548,211.425,454.513,678.536,96.4302,457.551,556.934,-67.1822,392.749,365.658,-148.473,338.18,361.766,23.9936,380.967,242.139,89.8801,80.8014,839.232,93.597,125.555,649.097,23.755,132.356,445.971,-42.0422,185.091,245.026,-119.414,220.623,214.271,93.8401,193.574,192.922
200,0,121.6,398.519,1134.81,128.483,130.298,1127.85,-79.6631,306.955,1201.09,-71.7412,202.308,1200.37,137.921,472.658,862.932,213.927,453.259,684.219,102.659,455.886,557.911,-51.0812,392.568,357.259,-131.518,337.634,348.327,47.3289,382.962,240.017,83.9725,82.2737,840.596,82.9658,126.74,650.636,12.2629,133.022,447.852,-54.0831,185.181,246.727,-131.611,220.653,216.451,81.2982,193.59,192.704
201,0,120.605,398.367,1138.87,126.878,130.307,1129.86,-80.6387,306.803,1205.09,-72.5802,202.067,1203.76,140.309,472.567,868.386,215.337,451.993,689.54,108.361,454.264,558.431,-34.3555,392.37,348.533,-113.487,337.009,334.47,70.9194,385.234,237.94,77.9631,83.7984,842.068,72.477,127.942,652.407,0.861779,133.703,449.946,-66.1477,185.25,248.724,-143.835,220.698,219.024,68.6358,193.628,192.483
202,0,119.671,398.312,1142.93,125.373,130.414,1131.87,-81.5582,306.645,1209.04,-73.319,201.856,1207.16,142.554,472.48,873.814,215.665,450.742,694.403,113.571,452.725,558.47,-16.9669,392.156,339.658,-94.3942,336.345,320.428,94.8015,387.619,236.038,71.8249,85.3247,843.644,62.1975,129.115,654.378,-10.3978,134.371,452.227,-78.2093,185.282,251.014,-156.065,220.744,221.997,55.8517,193.671,192.26
203,0,118.823,398.36,1146.92,123.983,130.622,1133.86,-82.3973,306.504,1212.91,-73.9466,201.695,1210.55,144.579,472.388,879.113,214.945,449.53,698.729,118.332,451.304,558.021,1.09127,391.934,330.817,-74.2944,335.699,306.44,118.981,389.913,234.449,65.5614,86.8078,845.327,52.1952,130.218,656.511,-21.4651,134.998,454.664,-90.2418,185.258,253.587,-168.276,220.767,225.365,42.9469,193.698,192.038
204,0,118.086,398.515,1150.8,122.721,130.935,1135.82,-83.1317,306.407,1216.64,-74.4532,201.609,1213.88,146.3,472.29,884.178,213.239,448.382,702.455,122.683,450.031,557.093,19.7797,391.718,322.194,-53.2919,335.137,292.747,143.418,391.909,233.317,59.2102,88.2117,847.115,42.5399,131.218,658.76,-32.29,135.56,457.222,-102.221,185.165,256.423,-180.445,220.74,229.11,29.9264,193.692,191.825
205,0,117.487,398.775,1154.51,121.6,131.353,1137.74,-83.7379,306.383,1220.18,-74.8305,201.619,1217.11,147.621,472.195,888.897,210.634,447.319,705.536,126.662,448.932,555.71,38.9999,391.53,313.961,-31.5521,334.727,279.581,168.013,393.424,232.789,52.8423,89.511,849.005,33.3038,132.092,661.074,-42.8225,136.038,459.861,-114.122,184.991,259.495,-192.551,220.634,233.206,16.7992,193.638,191.626
206,0,117.048,399.136,1157.99,120.63,131.876,1139.59,-84.1945,306.461,1223.47,-75.0728,201.749,1220.2,148.448,472.126,893.157,207.244,446.358,707.948,130.301,448.027,553.91,58.5848,391.392,306.269,-9.30966,334.53,267.151,192.594,394.332,232.994,46.5588,90.6912,850.98,24.5616,132.827,663.394,-53.0135,136.415,462.54,-125.923,184.729,262.772,-204.573,220.42,237.623,3.57863,193.526,191.446
207,0,116.79,399.587,1161.19,119.821,132.501,1141.36,-84.4842,306.669,1226.47,-75.1773,202.017,1223.09,148.692,472.115,896.846,203.21,445.514,709.681,133.627,447.329,551.741,78.2945,391.332,299.241,13.1266,334.598,255.633,216.915,394.579,234.026,40.4839,91.7492,853.012,16.3907,133.418,665.655,-62.8144,136.681,465.214,-137.601,184.376,266.219,-216.492,220.074,242.33,-9.71866,193.349,191.289
208,0,116.731,400.119,1164.06,119.181,133.223,1143.03,-84.5942,307.034,1229.13,-75.1453,202.441,1225.74,148.276,472.202,899.857,198.691,444.796,710.746,136.656,446.842,549.258,97.8186,391.372,292.961,35.3741,334.962,245.166,240.652,394.19,235.918,34.7574,92.6918,855.057,8.87015,133.868,667.788,-72.1778,136.828,467.837,-149.133,183.933,269.8,-228.287,219.58,247.298,-23.0737,193.111,191.156
209,0,116.882,400.718,1166.55,118.712,134.039,1144.57,-84.5178,307.578,1231.4,-74.9818,203.033,1228.09,147.15,472.43,902.093,193.867,444.207,711.168,139.398,446.564,546.52,116.785,391.532,287.463,56.9844,335.635,235.838,263.415,393.266,238.613,29.525,93.5343,857.053,2.07948,134.189,669.721,-81.057,136.853,470.368,-160.495,183.405,273.479,-239.937,218.934,252.501,-36.4675,192.819,191.041
210,0,117.245,401.37,1168.6,118.417,134.942,1145.94,-84.2553,308.32,1233.25,-74.6964,203.803,1230.09,145.297,472.833,903.472,188.926,443.748,710.987,141.852,446.487,543.587,134.776,391.824,282.734,77.4596,336.604,227.687,284.761,391.961,241.949,24.9295,94.2984,858.924,-3.90323,134.397,671.379,-89.4065,136.758,472.765,-171.657,182.799,277.225,-251.416,218.141,257.916,-49.8827,192.486,190.938
211,0,117.819,402.064,1170.17,118.293,135.924,1147.11,-83.8142,309.27,1234.63,-74.303,204.752,1231.67,142.745,473.429,903.936,184.059,443.412,710.256,144.013,446.592,540.518,151.351,392.248,278.714,96.2762,337.836,220.704,304.22,390.456,245.649,21.1024,95.0099,860.582,-9.00378,134.51,672.689,-97.182,136.546,474.991,-182.589,182.127,281.011,-262.696,217.216,263.524,-63.3068,192.129,190.834
212,0,118.59,402.79,1171.23,118.334,136.979,1148.05,-83.2097,310.432,1235.52,-73.8196,205.879,1232.79,139.571,474.215,903.457,179.449,443.19,709.037,145.866,446.859,537.367,166.073,392.791,275.301,112.916,339.275,214.833,321.321,388.931,249.334,18.1565,95.6962,861.929,-13.1547,134.549,673.583,-104.34,136.223,477.016,-193.252,181.398,284.817,-273.74,216.182,269.306,-76.7336,191.768,190.713
213,0,119.54,403.54,1171.75,118.528,138.099,1148.71,-82.4645,311.801,1235.88,-73.2681,207.174,1233.4,135.91,475.163,902.048,175.266,443.07,707.396,147.395,447.261,534.184,178.541,393.425,272.366,126.903,340.849,209.986,335.632,387.537,252.553,16.1804,96.3844,862.869,-16.2981,134.535,673.998,-110.84,135.796,478.815,-203.604,180.622,288.63,-284.503,215.07,275.248,-90.1649,191.421,190.56
214,0,120.641,404.312,1171.71,118.862,139.277,1149.05,-81.6086,313.364,1235.7,-72.6731,208.622,1233.46,131.946,476.221,899.77,171.653,443.037,705.407,148.583,447.769,531.01,188.415,394.109,269.771,137.84,342.472,206.052,346.793,386.377,254.839,15.2343,97.0989,863.309,-18.3891,134.485,673.88,-116.64,135.274,480.374,-213.593,179.807,292.449,-294.926,213.912,281.339,-103.61,191.104,190.362
215,0,121.858,405.105,1171.11,119.317,140.504,1149.04,-80.6778,315.095,1234.98,-72.0611,210.201,1232.93,127.912,477.32,896.734,168.717,443.078,703.14,149.41,448.352,527.88,195.449,394.79,267.378,145.438,344.053,202.907,354.553,385.5,255.768,15.3477,97.8595,863.167,-19.398,134.413,673.189,-121.703,134.666,481.684,-223.161,178.958,296.28,-304.939,212.741,287.578,-117.085,190.827,190.112
216,0,123.154,405.925,1169.95,119.871,141.772,1148.65,-79.7128,316.961,1233.71,-71.4595,211.885,1231.8,124.067,478.384,893.098,166.529,443.182,700.664,149.862,448.982,524.824,199.506,395.411,265.075,149.551,345.505,200.428,358.795,384.898,255.033,16.5186,98.68,862.384,-19.3125,134.329,671.9,-125.992,133.982,482.747,-232.244,178.076,300.139,-314.452,211.587,293.977,-130.607,190.593,189.813
217,0,124.484,406.778,1168.27,120.501,143.073,1147.84,-78.7574,318.919,1231.91,-70.8955,213.642,1230.06,120.681,479.346,889.066,165.113,443.341,698.041,149.926,449.633,521.861,200.574,395.916,262.78,150.181,346.748,198.504,359.56,384.524,252.494,18.7145,99.5671,860.924,-18.1394,134.24,670.005,-129.475,133.23,483.574,-240.771,177.16,304.05,-323.361,210.476,300.561,-144.188,190.399,189.487
218,0,125.805,407.674,1166.1,121.18,144.397,1146.61,-77.8561,320.919,1229.61,-70.3945,215.436,1227.72,118.003,480.156,884.866,164.448,443.551,695.324,149.595,450.282,519.006,198.764,396.256,260.451,147.488,347.724,197.035,357.047,384.304,248.215,21.8744,100.519,858.782,-15.9046,134.145,667.515,-132.121,132.42,484.184,-248.665,176.206,308.041,-331.543,209.421,307.372,-157.828,190.233,189.173
219,0,127.069,408.623,1163.48,121.882,145.733,1144.93,-77.0524,322.908,1226.83,-69.979,217.23,1224.81,116.238,480.793,880.732,164.467,443.815,692.557,148.866,450.913,516.267,194.301,396.395,258.085,141.768,348.397,195.941,351.597,384.161,242.463,25.9117,101.525,855.987,-12.6524,134.043,664.466,-133.906,131.56,484.603,-255.848,175.208,312.146,-338.864,208.425,314.461,-171.503,190.079,188.932
220,0,128.236,409.637,1160.49,122.579,147.072,1142.83,-76.3864,324.827,1223.64,-69.6677,218.985,1221.38,115.516,481.27,876.878,165.069,444.14,689.77,147.741,451.515,513.647,187.508,396.32,255.712,133.433,348.757,195.158,343.669,384.028,235.671,30.7183,102.566,852.603,-8.44366,133.926,660.91,-134.809,130.659,484.864,-262.241,174.162,316.396,-345.184,207.482,321.882,-185.152,189.916,188.846
221,0,129.265,410.726,1157.17,123.245,148.401,1140.31,-75.8924,326.623,1220.09,-69.4745,220.666,1217.48,115.871,481.631,873.475,166.117,444.538,686.983,146.221,452.082,511.144,178.772,396.036,253.388,122.97,348.824,194.635,333.787,383.862,228.37,36.1684,103.615,848.723,-3.35335,133.788,656.92,-134.816,129.726,485.006,-267.767,173.065,320.821,-350.37,206.574,329.68,-198.672,189.721,189.012
222,0,130.124,411.895,1153.62,123.856,149.71,1137.42,-75.5974,328.244,1216.25,-69.4084,222.239,1213.18,117.229,481.945,870.623,167.453,445.021,684.204,144.313,452.615,508.752,168.511,395.573,251.175,110.896,348.637,194.333,322.491,383.647,221.115,42.1236,104.64,844.468,2.53318,133.62,652.59,-133.919,128.77,485.069,-272.354,171.919,325.441,-354.307,205.677,337.875,-211.904,189.473,189.532
223,0,130.785,413.149,1149.92,124.391,150.987,1134.2,-75.5194,329.646,1212.19,-69.4724,223.675,1208.58,119.406,482.291,868.344,168.906,445.604,681.433,142.017,453.118,506.462,157.144,394.976,249.136,97.7227,348.254,194.215,310.284,383.396,214.396,48.4367,105.605,839.976,9.12411,133.415,648.024,-132.119,127.802,485.095,-275.937,170.728,330.263,-356.914,204.77,346.453,-224.633,189.152,190.507
224,0,131.229,414.486,1146.14,124.831,152.222,1130.71,-75.6665,330.8,1208.01,-69.6645,224.952,1203.76,122.12,482.747,866.576,170.302,446.296,678.661,139.335,453.598,504.262,145.058,394.302,247.318,83.9102,347.742,194.249,297.589,383.134,208.581,54.9571,106.473,835.394,16.3252,133.167,643.341,-129.426,126.833,485.127,-278.461,169.505,335.281,-358.153,203.83,355.356,-236.586,188.743,192.018
225,0,131.446,415.901,1142.37,125.164,153.406,1127.03,-76.0369,331.687,1203.8,-69.9779,226.055,1198.84,125.016,483.374,865.188,171.473,447.103,675.876,136.259,454.064,502.141,132.584,393.615,245.749,69.8452,347.167,194.407,284.723,382.898,203.879,61.5344,107.212,830.865,24.0434,132.874,638.664,-125.857,125.874,485.202,-279.885,168.266,340.468,-358.038,202.847,364.475,-247.446,188.235,194.118
226,0,131.433,417.384,1138.68,125.379,154.53,1123.23,-76.6191,332.305,1199.63,-70.4018,226.977,1193.91,127.705,484.21,863.995,172.262,448.026,673.068,132.781,454.522,500.087,119.983,392.971,244.435,55.8229,346.586,194.659,271.893,382.718,200.34,68.0238,107.796,826.524,32.1908,132.538,634.119,-121.441,124.938,485.356,-280.179,167.032,345.778,-356.632,201.812,373.659,-256.857,187.625,196.82
227,0,131.193,418.917,1135.14,125.47,155.589,1119.41,-77.3927,332.666,1195.59,-70.9222,227.721,1189.09,129.799,485.261,862.8,172.531,449.056,670.227,128.884,454.98,498.09,107.438,392.417,243.36,42.0427,346.044,194.98,259.205,382.611,197.876,74.2906,108.208,822.483,40.6863,132.166,629.829,-116.215,124.038,485.618,-279.326,165.825,351.143,-354.039,200.727,382.719,-264.454,186.914,200.089
228,0,130.741,420.484,1131.82,125.434,156.579,1115.66,-78.3302,332.797,1191.77,-71.5238,228.296,1184.47,130.957,486.503,861.418,172.165,450.175,667.354,124.546,455.442,496.143,95.0621,391.984,242.494,28.6144,345.57,195.348,246.686,382.579,196.305,80.2151,108.443,818.83,49.4578,131.768,625.909,-110.226,123.186,486.01,-277.326,164.67,356.477,-350.391,199.595,391.444,-269.88,186.111,203.844
229,0,130.092,422.06,1128.76,125.273,157.498,1112.07,-79.3989,332.739,1188.24,-72.1906,228.719,1180.16,130.917,487.886,859.711,171.071,451.36,664.454,119.743,455.905,494.246,82.904,391.684,241.799,15.5727,345.173,195.748,234.313,382.609,195.397,85.6981,108.509,815.628,58.4422,131.36,622.465,-103.528,122.396,486.545,-274.188,163.589,361.677,-345.825,198.419,399.615,-272.82,185.233,207.957
230,0,129.27,423.62,1126,124.992,158.345,1108.73,-80.5633,332.541,1185.07,-72.9072,229.012,1176.24,129.531,489.342,857.61,169.182,452.578,661.549,114.45,456.368,492.401,70.9629,391.512,241.236,2.89504,344.852,196.17,222.039,382.677,194.924,90.6653,108.426,812.916,67.5851,130.959,619.587,-96.1837,121.681,487.229,-269.938,162.599,366.623,-340.466,197.199,407.023,-273.021,184.303,212.269
231,0,128.299,425.14,1123.58,124.595,159.123,1105.72,-81.7867,332.257,1182.3,-73.6602,229.204,1172.78,126.77,490.794,855.127,166.454,453.793,658.669,108.642,456.822,490.62,59.2041,391.447,240.772,-9.47817,344.593,196.611,209.81,382.753,194.684,95.072,108.221,810.712,76.8388,130.588,617.349,-88.2597,121.05,488.058,-264.609,161.714,371.191,-334.414,195.928,413.476,-270.318,183.351,216.599
232,0,127.206,426.594,1121.51,124.092,159.834,1103.12,-83.0344,331.944,1179.99,-74.4385,229.323,1169.84,122.725,492.165,852.346,162.867,454.966,655.855,102.298,457.257,488.92,47.5732,391.46,240.385,-21.6254,344.378,197.074,197.583,382.808,194.528,98.9062,107.928,809.022,86.1607,130.265,615.811,-79.8277,120.513,489.02,-258.245,160.942,375.249,-327.732,194.593,418.811,-264.647,182.406,220.767
233,0,126.019,427.957,1119.8,123.49,160.48,1100.98,-84.2745,331.654,1178.17,-75.2338,229.399,1167.47,117.592,493.389,849.416,158.421,456.057,653.155,95.4044,457.661,487.324,36.0091,391.517,240.067,-33.6286,344.19,197.568,185.329,382.818,194.362,102.19,107.583,807.844,95.5097,130.014,615.008,-70.9613,120.076,490.094,-250.898,160.282,378.671,-320.452,193.178,422.899,-256.049,181.499,224.608
234,0,124.764,429.208,1118.46,122.801,161.066,1099.36,-85.4802,331.434,1176.86,-76.0407,229.459,1165.69,111.64,494.411,846.519,153.136,457.029,650.624,87.9544,458.023,485.861,24.454,391.588,239.821,-45.5622,344.015,198.108,173.032,382.768,194.14,104.977,107.218,807.175,104.844,129.849,614.963,-61.7339,119.742,491.254,-242.621,159.731,381.338,-312.574,191.667,425.645,-244.665,180.649,227.988
235,0,123.468,430.328,1117.48,122.034,161.592,1098.28,-86.6304,331.319,1176.07,-76.8565,229.529,1164.52,105.177,495.195,843.843,147.053,457.85,648.316,79.9529,458.331,484.564,12.8599,391.648,239.664,-57.4861,343.851,198.714,160.69,382.651,193.854,107.354,106.861,807.015,114.118,129.786,615.675,-52.2171,119.512,492.464,-233.472,159.279,383.145,-304.082,190.05,426.988,-230.721,179.864,230.812
236,0,122.151,431.303,1116.85,121.201,162.062,1097.77,-87.7099,331.333,1175.8,-77.6801,229.629,1163.96,98.5091,495.721,841.558,140.224,458.493,646.285,71.4158,458.575,483.467,1.19248,391.684,239.621,-69.4432,343.703,199.409,148.306,382.471,193.519,109.43,106.531,807.372,123.281,129.831,617.13,-42.4785,119.381,493.689,-223.503,158.915,384.006,-294.953,188.325,426.898,-214.507,179.133,233.033
237,0,120.837,432.121,1116.55,120.312,162.475,1097.83,-88.7095,331.488,1176.03,-78.5118,229.772,1164,91.9068,495.987,839.789,132.717,458.939,644.578,62.3705,458.746,482.607,-10.5678,391.692,239.722,-81.4589,343.586,200.22,135.887,382.238,193.161,111.329,106.237,808.254,132.273,129.985,619.294,-32.5804,119.343,494.887,-212.764,158.626,383.858,-285.167,186.501,425.371,-196.352,178.428,234.644
238,0,119.541,432.775,1116.58,119.38,162.831,1098.45,-89.6251,331.78,1176.75,-79.3517,229.966,1164.63,85.5767,496.003,838.608,124.61,459.18,643.232,52.8562,458.84,482.018,-22.4263,391.68,240.002,-93.5437,343.521,201.18,123.439,381.967,192.802,113.186,105.979,809.676,141.027,130.24,622.12,-22.5783,119.388,496.017,-201.297,158.401,382.662,-274.709,184.599,422.427,-176.595,177.708,235.675
239,0,118.28,433.265,1116.9,118.416,163.128,1099.63,-90.4566,332.195,1177.93,-80.1989,230.212,1165.79,79.646,495.788,838.031,115.989,459.213,642.278,42.922,458.854,481.733,-34.3766,391.662,240.493,-105.697,343.533,202.32,110.967,381.674,192.463,115.129,105.75,811.651,149.467,130.584,625.548,-12.5201,119.503,497.041,-189.134,158.231,380.411,-263.573,182.656,418.108,-155.565,176.923,236.179
240,0,117.068,433.591,1117.51,117.434,163.364,1101.32,-91.2065,332.708,1179.53,-81.0506,230.506,1167.47,74.1591,495.369,838.023,106.944,459.046,641.733,32.6261,458.789,481.778,-46.403,391.656,241.226,-117.909,343.645,203.676,98.4742,381.372,192.154,117.272,105.536,814.187,157.512,130.995,629.506,-2.44575,119.675,497.922,-176.294,158.109,377.122,-251.758,180.723,412.47,-133.564,176.026,236.221
241,0,115.914,433.758,1118.38,116.45,163.536,1103.5,-91.8784,333.287,1181.52,-81.9012,230.837,1169.61,69.0859,494.774,838.512,97.5683,458.69,641.604,22.0334,458.647,482.177,-58.4838,391.679,242.227,-130.165,343.877,205.284,85.9614,381.071,191.875,119.704,105.323,817.283,165.074,131.448,633.915,7.61304,119.888,498.63,-162.785,158.032,372.844,-239.261,178.863,405.584,-110.848,174.983,235.869
242,0,114.83,433.776,1119.5,115.479,163.643,1106.12,-92.4756,333.894,1183.86,-82.7419,231.189,1172.17,64.3405,494.031,839.41,87.954,458.164,641.889,11.2133,458.431,482.943,-70.5941,391.744,243.518,-142.45,344.239,207.18,73.4284,380.777,191.623,122.481,105.095,820.928,172.065,131.913,638.686,17.6318,120.126,499.139,-148.604,158.001,367.653,-226.078,177.156,397.532,-87.6277,173.78,235.181
243,0,113.824,433.655,1120.85,114.539,163.682,1109.14,-92.9999,334.492,1186.5,-83.5604,231.545,1175.09,59.8047,493.163,840.622,78.1913,457.491,642.576,0.23809,458.145,484.084,-82.7082,391.861,245.115,-154.744,344.731,209.396,60.8736,380.489,191.392,125.618,104.838,825.093,178.399,132.358,643.731,27.5926,120.374,499.432,-133.739,158.019,361.648,-212.197,175.69,388.401,-64.0609,172.431,234.209
244,0,112.904,433.407,1122.42,113.647,163.655,1112.5,-93.4503,335.042,1189.39,-84.341,231.884,1178.32,55.354,492.193,842.061,68.3659,456.694,643.646,-10.8193,457.796,485.6,-94.8016,392.027,247.031,-167.031,345.339,211.964,48.293,380.201,191.173,129.089,104.543,829.731,183.996,132.754,648.957,37.4823,120.619,499.502,-118.176,158.09,354.954,-197.595,174.561,378.283,-40.2592,170.976,232.993
245,0,112.078,433.048,1124.17,112.824,163.562,1116.15,-93.823,335.512,1192.49,-85.0654,232.185,1181.81,50.8804,491.136,843.661,58.5586,455.797,645.072,-21.8869,457.388,487.482,-106.853,392.235,249.271,-179.291,346.042,214.906,35.6805,379.904,190.962,132.824,104.202,834.782,188.787,133.071,654.272,47.2912,120.85,499.348,-101.897,158.219,347.715,-182.242,173.866,367.274,-16.2945,169.478,231.572
246,0,111.353,432.59,1126.09,112.09,163.408,1120.03,-94.1106,335.872,1195.74,-85.7129,232.428,1185.49,46.3102,490.007,845.372,48.8452,454.823,646.821,-32.8942,456.923,489.712,-118.842,392.469,251.84,-191.508,346.806,218.24,23.0267,379.587,190.757,136.715,103.81,840.162,192.717,133.288,659.588,57.0108,121.058,498.977,-84.8946,158.408,340.09,-166.104,173.693,355.478,7.79112,168.016,229.989
247,0,110.737,432.049,1128.16,111.464,163.197,1124.09,-94.3025,336.102,1199.09,-86.2618,232.592,1189.31,41.6136,488.814,847.165,39.2977,453.794,648.855,-43.7734,456.407,492.263,-130.755,392.707,254.733,-203.662,347.593,221.976,10.319,379.236,190.557,140.622,103.361,845.777,195.751,133.387,664.82,66.6322,121.237,498.404,-67.1735,158.659,332.245,-149.144,174.114,343.013,31.974,166.671,228.298
248,0,110.238,431.438,1130.35,110.966,162.934,1128.26,-94.3862,336.187,1202.51,-86.6904,232.662,1193.21,36.8073,487.567,849.025,29.9849,452.727,651.129,-54.459,455.843,495.102,-142.577,392.924,257.943,-215.734,348.36,226.113,-2.45773,378.84,190.368,144.387,102.849,851.514,197.877,133.359,669.889,76.1435,121.387,497.65,-48.7594,158.972,324.353,-131.333,175.171,330.023,56.2367,165.517,226.573
249,0,109.861,430.767,1132.64,110.613,162.626,1132.47,-94.3472,336.121,1205.93,-86.9781,232.623,1197.14,31.9493,486.274,850.944,20.9752,451.637,653.594,-64.8881,455.233,498.187,-154.295,393.097,261.457,-227.705,349.064,230.643,-15.3196,378.389,190.197,147.842,102.268,857.254,199.109,133.204,674.721,85.5286,121.508,496.736,-29.7052,159.343,316.582,-112.659,176.867,316.684,80.5568,164.608,224.909
250,0,109.614,430.048,1134.98,110.422,162.28,1136.66,-94.1713,335.904,1209.32,-87.1068,232.464,1201.03,27.1292,484.943,852.916,12.3374,450.536,656.193,-74.9994,454.582,501.467,-165.893,393.202,265.256,-239.554,349.669,235.546,-28.2816,377.874,190.053,150.825,101.606,862.869,199.487,132.931,679.251,94.7654,121.605,495.69,-10.0976,159.768,309.088,-93.1377,179.16,303.219,104.897,163.976,223.417
251,0,109.502,429.287,1137.34,110.405,161.9,1140.77,-93.8454,335.542,1212.62,-87.0616,232.177,1204.82,22.4556,483.584,854.93,4.14298,449.434,658.864,-84.733,453.895,504.89,-177.354,393.22,269.313,-251.26,350.143,240.798,-41.3547,377.295,189.947,153.195,100.853,868.228,199.082,132.557,683.421,103.825,121.686,494.535,9.93872,160.238,302.01,-72.8245,181.954,289.89,129.195,163.626,222.217
252,0,109.529,428.488,1139.67,110.572,161.489,1144.72,-93.3592,335.042,1215.77,-86.8322,231.756,1208.45,18.0438,482.204,856.968,-3.53358,448.341,661.54,-94.0297,453.179,508.395,-188.652,393.138,273.595,-262.797,350.464,246.366,-54.5429,376.651,189.886,154.843,99.9988,873.205,197.991,132.106,687.18,112.671,121.76,493.296,30.2381,160.749,295.461,-51.8295,185.108,276.992,153.359,163.542,221.425
253,0,109.699,427.654,1141.92,110.93,161.05,1148.43,-92.7065,334.419,1218.74,-86.4134,231.199,1211.86,14.0043,480.815,858.997,-10.6147,447.263,664.147,-102.831,452.442,511.919,-199.753,392.953,278.062,-274.139,350.621,252.213,-67.8405,375.952,189.875,155.704,99.0368,877.678,196.336,131.607,690.486,121.259,121.838,491.99,50.5928,161.295,289.523,-30.325,188.44,264.831,177.261,163.691,221.133
254,0,110.011,426.783,1144.04,111.479,160.579,1151.84,-91.8864,333.685,1221.46,-85.8059,230.504,1214.98,10.4345,479.424,860.973,-17.0209,446.209,666.607,-111.078,451.698,515.4,-210.615,392.667,282.666,-285.255,350.616,258.297,-81.2303,375.208,189.917,155.764,97.9688,881.538,194.263,131.094,693.306,129.538,121.93,490.633,70.7549,161.873,284.243,-8.55026,191.757,253.69,200.734,164.034,221.392
255,0,110.464,425.872,1145.98,112.218,160.073,1154.88,-90.9044,332.852,1223.89,-85.0161,229.673,1217.76,7.41386,478.039,862.837,-22.6728,445.191,668.839,-118.713,450.961,518.771,-221.186,392.292,287.353,-296.106,350.46,264.579,-94.6844,374.438,190.004,155.068,96.8065,884.691,191.931,130.602,695.613,137.449,122.047,489.232,90.4404,162.482,279.633,13.1889,194.874,243.799,223.565,164.536,222.194
256,0,111.053,424.915,1147.67,113.14,159.523,1157.47,-89.7728,331.933,1225.97,-84.0568,228.709,1220.13,5.0022,476.667,864.519,-27.4938,444.22,670.758,-125.68,450.249,521.973,-231.402,391.848,292.068,-306.646,350.177,271.019,-108.166,373.664,190.126,153.715,95.5743,887.064,189.509,130.162,697.391,144.932,122.198,487.79,109.337,163.124,275.668,34.5261,197.642,235.3,245.498,165.17,223.464
257,0,111.769,423.906,1149.07,114.234,158.919,1159.56,-88.5107,330.937,1227.64,-82.9462,227.617,1222.04,3.24022,475.311,865.938,-31.414,443.313,672.285,-131.922,449.582,524.947,-241.194,391.363,296.753,-316.82,349.799,277.583,-121.632,372.91,190.262,151.855,94.3086,888.608,187.168,129.804,698.631,151.92,122.389,486.305,127.112,163.805,272.293,55.0424,199.97,228.236,266.229,165.925,225.051
258,0,112.603,422.836,1150.1,115.485,158.248,1161.08,-87.1438,329.871,1228.85,-81.7082,226.402,1223.45,2.15203,473.979,867.007,-34.3734,442.486,673.341,-137.386,448.983,527.642,-250.487,390.872,301.358,-326.564,349.369,284.244,-135.042,372.199,190.388,149.679,93.0557,889.302,185.068,129.551,699.332,158.347,122.625,484.768,143.431,164.531,269.429,74.2769,201.831,222.544,285.416,166.803,226.745
259,0,113.539,421.699,1150.74,116.874,157.497,1162,-85.7038,328.741,1229.55,-80.3709,225.073,1224.31,1.74836,472.676,867.639,-36.3259,441.759,673.859,-142.025,448.473,530.015,-259.206,390.415,305.838,-335.802,348.934,290.986,-148.359,371.554,190.475,147.406,91.867,889.154,183.352,129.415,699.501,164.148,122.904,483.169,157.965,165.307,266.982,91.7388,203.259,218.075,302.687,167.818,228.29
260,0,114.559,420.487,1150.93,118.378,156.651,1162.28,-84.2267,327.549,1229.71,-78.9665,223.64,1224.58,2.0298,471.412,867.75,-37.2415,441.153,673.783,-145.793,448.078,532.03,-267.28,390.038,310.167,-344.452,348.546,297.806,-161.551,370.99,190.497,145.262,90.793,888.202,182.135,129.398,699.152,169.263,123.223,481.494,170.413,166.138,264.848,106.925,204.328,214.626,317.654,168.986,229.417
261,0,115.644,419.195,1150.64,119.973,155.699,1161.9,-82.752,326.299,1229.29,-77.5294,222.116,1224.26,2.98953,470.197,867.27,-37.1088,440.685,673.071,-148.652,447.818,533.667,-274.642,389.787,314.335,-352.424,348.261,304.713,-174.599,370.516,190.435,143.46,89.8751,886.515,181.498,129.492,698.308,173.635,123.572,479.732,180.519,167.024,262.93,119.346,205.133,211.972,329.947,170.318,229.88
262,0,116.769,417.822,1149.86,121.631,154.629,1160.86,-81.3201,324.991,1228.26,-76.0957,220.516,1223.34,4.61505,469.048,866.147,-35.9359,440.373,671.704,-150.57,447.715,534.911,-281.239,389.706,318.353,-359.623,348.131,311.73,-187.486,370.131,190.288,142.184,89.1389,884.187,181.481,129.672,696.997,177.216,123.939,477.871,188.085,167.96,261.139,128.568,205.761,209.906,339.242,171.812,229.489
263,0,117.911,416.366,1148.58,123.322,153.436,1159.18,-79.9707,323.629,1226.62,-74.7011,218.858,1221.82,6.88887,467.979,864.354,-33.7498,440.23,669.682,-151.526,447.784,535.765,-287.028,389.837,322.258,-365.958,348.205,318.89,-200.194,369.822,190.077,141.566,88.5878,881.333,182.08,129.906,695.254,179.968,124.308,475.903,192.988,168.932,259.407,134.256,206.278,208.258,345.296,173.448,228.145
264,0,119.042,414.831,1146.8,125.015,152.117,1156.89,-78.7409,322.218,1224.38,-73.3804,217.162,1219.73,9.78806,467.01,861.895,-30.5945,440.261,667.03,-151.503,448.039,536.239,-291.979,390.212,326.102,-371.34,348.521,326.233,-212.696,369.569,189.856,141.675,88.2001,878.084,183.245,130.148,693.118,181.862,124.66,473.825,195.191,169.922,257.685,136.236,206.721,206.909,347.987,175.184,225.855
265,0,120.136,413.224,1144.56,126.678,150.673,1154.04,-77.663,320.764,1221.57,-72.1656,215.45,1217.12,13.2828,466.158,858.811,-26.5286,440.467,663.799,-150.496,448.485,536.359,-296.077,390.852,329.959,-375.693,349.104,333.799,-224.947,369.344,189.707,142.505,87.9291,874.572,184.886,130.345,690.635,182.88,124.973,471.637,194.744,170.902,255.949,134.536,207.101,205.789,347.335,176.957,222.733
266,0,121.167,411.554,1141.89,128.28,149.113,1150.7,-76.7631,319.275,1218.23,-71.0846,213.746,1214.06,17.3341,465.437,855.175,-21.6217,440.841,660.062,-148.509,449.125,536.159,-299.314,391.76,333.908,-378.952,349.957,341.621,-236.868,369.119,189.747,143.978,87.7067,870.928,186.875,130.441,687.854,183.017,125.225,469.347,191.785,171.839,254.197,129.406,207.411,204.868,343.512,178.691,218.99
267,0,122.108,409.835,1138.85,129.79,147.45,1146.96,-76.0597,317.764,1214.43,-70.1609,212.074,1210.61,21.8913,464.856,851.097,-15.9499,441.369,655.913,-145.555,449.95,535.683,-301.692,392.924,338.031,-381.077,351.063,349.715,-248.341,368.874,190.11,145.945,87.4513,867.266,189.055,130.377,684.825,182.277,125.397,466.968,186.533,172.699,252.444,121.307,207.639,204.141,336.842,180.302,214.898
268,0,122.938,408.082,1135.51,131.179,145.701,1142.91,-75.5627,316.244,1210.26,-69.4118,210.458,1206.86,26.8898,464.42,846.709,-9.59192,442.03,651.466,-141.654,450.949,534.982,-303.215,394.307,342.402,-382.047,352.379,358.078,-259.2,368.599,190.946,148.199,87.0772,863.677,191.252,130.103,681.602,180.675,125.469,464.519,179.269,173.444,250.716,110.86,207.775,203.615,327.766,181.712,210.752
269,0,123.636,406.311,1131.95,132.421,143.886,1138.66,-75.2737,314.731,1205.82,-68.8486,208.917,1202.92,32.25,464.123,842.166,-2.62524,442.798,646.846,-136.839,452.103,534.115,-303.888,395.858,347.073,-381.868,353.838,366.676,-269.228,368.305,192.394,150.496,86.5049,860.228,193.283,129.575,678.239,178.233,125.426,462.021,170.322,174.044,249.049,98.7628,207.818,203.3,316.803,182.853,206.83
270,0,124.185,404.541,1128.27,133.492,142.031,1134.32,-75.1859,313.241,1201.21,-68.4761,207.472,1198.89,37.8776,463.953,837.626,4.87713,443.644,642.187,-131.147,453.383,533.143,-303.71,397.505,352.075,-380.57,355.352,375.444,-278.164,368.027,194.567,152.576,85.6715,856.953,194.968,128.762,674.789,174.983,125.259,459.502,160.04,174.47,247.476,85.7018,207.769,203.198,304.498,183.679,203.355
271,0,124.573,402.79,1124.54,134.374,140.161,1130,-75.2848,311.791,1196.57,-68.2926,206.134,1194.88,43.6658,463.892,833.244,12.8488,444.536,637.628,-124.625,454.758,532.13,-302.677,399.168,357.402,-378.205,356.822,384.283,-285.71,367.821,197.535,154.183,84.5383,853.864,196.141,127.653,671.305,170.961,124.964,456.992,148.776,174.706,246.028,72.2726,207.639,203.3,291.372,184.172,200.474
272,0,124.791,401.076,1120.88,135.053,138.301,1125.81,-75.5502,310.396,1192.02,-68.2907,204.912,1191,49.5007,463.915,829.16,21.2312,445.443,633.302,-117.327,456.191,531.14,-300.778,400.76,363.014,-374.845,358.142,393.065,-291.549,367.758,201.309,155.093,83.0955,850.95,196.659,126.255,667.837,166.207,124.543,454.523,136.856,174.748,244.729,58.9252,207.436,203.588,277.878,184.338,198.248
273,0,124.837,399.413,1117.37,135.52,136.478,1121.84,-75.9573,309.07,1187.68,-68.4576,203.811,1187.35,55.267,463.995,825.489,29.9732,446.334,629.339,-109.313,457.641,530.236,-297.992,402.196,368.836,-370.576,359.213,401.634,-295.372,367.912,205.83,155.129,81.3635,848.193,196.405,124.594,664.432,160.764,124.006,452.126,124.572,174.599,243.593,45.9429,207.171,204.034,264.372,184.21,196.657
274,0,124.711,397.817,1114.09,135.771,134.712,1118.2,-76.4788,307.824,1183.67,-68.7761,202.825,1184.04,60.8563,464.104,822.319,39.03,447.182,625.854,-100.65,459.063,529.478,-294.297,403.402,374.756,-365.489,359.954,409.818,-296.9,368.349,210.974,154.177,79.3908,845.572,195.292,122.714,661.137,154.674,123.368,449.836,112.159,174.28,242.626,33.4532,206.855,204.603,251.1,183.841,195.622
275,0,124.419,396.298,1111.13,135.811,133.023,1114.95,-77.0872,306.665,1180.09,-69.2262,201.949,1181.13,66.1744,464.215,819.711,48.3612,447.964,622.954,-91.4127,460.413,528.92,-289.667,404.324,380.637,-359.673,360.311,417.431,-295.914,369.106,216.557,152.191,77.2488,843.077,193.268,120.677,657.995,147.982,122.65,447.684,99.7992,173.819,241.824,21.4592,206.502,205.258,238.201,183.293,195.022
276,0,123.971,394.864,1108.55,135.646,131.427,1112.16,-77.7562,305.598,1177.04,-69.7854,201.167,1178.69,71.1483,464.309,817.701,57.9279,448.66,620.726,-81.6782,461.649,528.612,-284.079,404.924,386.319,-353.21,360.262,424.289,-292.27,370.181,222.353,149.197,75.0241,840.712,190.31,118.558,655.046,140.728,121.878,445.702,87.6107,173.25,241.18,9.88206,206.131,205.963,225.721,182.636,194.723
277,0,123.378,393.52,1106.41,135.289,129.934,1109.88,-78.4625,304.624,1174.58,-70.4309,200.464,1176.78,75.7313,464.369,816.308,67.6899,449.256,619.243,-71.5303,462.729,528.593,-277.517,405.193,391.633,-346.17,359.819,430.212,-285.918,371.526,228.116,145.282,72.8113,838.497,186.42,116.437,652.326,132.954,121.081,443.919,75.6579,172.615,240.682,-1.39773,205.764,206.685,213.633,181.933,194.6
278,0,122.658,392.269,1104.73,134.758,128.552,1108.13,-79.1872,303.738,1172.77,-71.14,199.821,1175.43,79.9049,464.389,815.542,77.6025,449.74,618.559,-61.0563,463.616,528.896,-269.979,405.143,396.407,-338.604,359.024,435.034,-276.903,373.052,233.602,140.584,70.7039,836.472,181.628,114.397,649.871,124.699,120.29,442.363,63.957,171.954,240.321,-12.5068,205.424,207.401,201.867,181.241,194.546
279,0,121.827,391.11,1103.55,134.073,127.284,1106.92,-79.916,302.934,1171.64,-71.8912,199.217,1174.65,83.6789,464.366,815.404,87.6142,450.106,618.714,-50.3466,464.282,529.542,-261.478,404.808,400.476,-330.545,357.947,438.611,-265.358,374.632,238.59,135.274,68.7882,834.687,175.978,112.517,647.712,116,119.532,441.058,52.4864,171.306,240.089,-23.5571,205.132,208.094,190.327,180.603,194.487
280,0,120.903,390.043,1102.86,133.256,126.128,1106.26,-80.6402,302.203,1171.18,-72.6651,198.633,1174.44,87.0886,464.304,815.896,97.6647,450.352,619.725,-39.4932,464.701,530.54,-252.045,404.236,403.694,-322.005,356.671,440.818,-251.486,376.13,242.903,129.54,67.137,833.195,169.532,110.869,645.877,106.893,118.837,440.028,41.1986,170.702,239.983,-34.6347,204.905,208.765,178.913,180.049,194.378
281,0,119.906,389.063,1102.67,132.333,125.083,1106.12,-81.3555,301.532,1171.4,-73.4449,198.05,1174.79,90.1894,464.209,817.016,107.684,450.479,621.594,-28.5878,464.859,531.884,-241.729,403.486,405.934,-312.976,355.283,441.558,-235.544,377.416,246.41,123.568,65.8062,832.049,162.36,109.508,644.389,97.414,118.227,439.291,30.0314,170.169,240.008,-45.7974,204.747,209.426,167.535,179.595,194.206
282,0,118.855,388.169,1102.95,131.327,124.145,1106.47,-82.062,300.908,1172.27,-74.2165,197.454,1175.68,93.0511,464.091,818.761,117.592,450.487,624.301,-17.7205,464.75,533.557,-230.594,402.617,407.103,-303.435,353.862,440.763,-217.816,378.393,249.036,117.525,64.8327,831.289,154.54,108.476,643.268,87.6002,117.722,438.866,18.9187,169.72,240.175,-57.0785,204.651,210.103,156.12,179.245,193.975
283,0,117.768,387.359,1103.68,130.261,123.309,1107.29,-82.7629,300.317,1173.75,-74.9686,196.832,1177.06,95.7503,463.959,821.122,127.298,450.384,627.808,-6.97732,464.377,535.525,-218.712,401.69,407.134,-293.343,352.472,438.39,-198.593,379.01,250.758,111.549,64.2336,830.94,146.154,107.793,642.528,77.4882,117.333,438.765,7.79856,169.362,240.502,-68.4915,204.6,210.837,144.616,178.994,193.703
284,0,116.66,386.63,1104.82,129.159,122.571,1108.51,-83.4631,299.745,1175.78,-75.6928,196.178,1178.89,98.3637,463.82,824.082,136.708,450.174,632.058,3.56199,463.751,537.741,-206.156,400.752,405.993,-282.647,351.155,434.425,-178.155,379.28,251.599,105.74,64.0073,831.005,137.285,107.462,642.178,67.1168,117.067,438.999,-3.38012,169.09,241.013,-80.0361,204.569,211.677,132.988,178.831,193.413
285,0,115.547,385.983,1106.33,128.041,121.928,1110.1,-84.168,299.178,1178.31,-76.3825,195.487,1181.13,100.961,463.681,827.612,145.717,449.864,636.971,13.8259,462.891,540.145,-192.992,399.846,403.677,-271.284,349.93,428.881,-156.748,379.276,251.621,100.158,64.1348,831.473,128.019,107.468,642.219,56.5264,116.924,439.572,-14.6538,168.893,241.732,-91.703,204.526,212.677,121.218,178.738,193.128
286,0,114.442,385.421,1108.16,126.925,121.379,1112.01,-84.8819,298.605,1181.27,-77.0329,194.762,1183.72,103.599,463.55,831.67,154.223,449.464,642.454,23.753,461.825,542.664,-179.271,398.999,400.21,-259.184,348.793,421.799,-134.582,379.126,250.913,94.8235,64.5827,832.314,118.439,107.779,642.65,45.7598,116.898,440.487,-26.0425,168.753,242.69,-103.477,204.443,213.892,109.301,178.699,192.862
287,0,113.356,384.945,1110.26,125.827,120.924,1114.18,-85.6071,298.017,1184.59,-77.6405,194.007,1186.61,106.319,463.431,836.202,162.122,448.982,648.394,33.294,460.585,545.219,-165.024,398.227,395.641,-246.268,347.725,413.247,-111.813,378.995,249.589,89.7247,65.3053,833.488,108.627,108.351,643.461,34.8617,116.977,441.74,-37.5501,168.648,243.911,-115.338,204.296,215.378,97.2389,178.694,192.626
288,0,112.299,384.561,1112.59,124.759,120.565,1116.56,-86.3426,297.41,1188.21,-78.2018,193.231,1189.75,109.138,463.331,841.142,169.314,448.428,654.67,42.4127,459.208,547.724,-150.254,397.541,390.043,-232.455,346.7,403.322,-88.5491,379.064,247.771,84.8235,66.2488,834.947,98.6643,109.131,644.636,23.879,117.145,443.324,-49.1658,168.554,245.42,-127.266,204.069,217.186,85.0362,178.707,192.421
289,0,111.28,384.275,1115.11,123.734,120.304,1119.12,-87.0837,296.781,1192.05,-78.7134,192.447,1193.09,112.057,463.254,846.414,175.71,447.81,661.151,51.0867,457.732,550.092,-134.94,396.941,383.51,-217.659,345.689,392.146,-64.8462,379.5,245.587,80.0658,67.3544,836.646,88.6283,110.062,646.153,12.8598,117.382,445.224,-60.8667,168.449,247.232,-139.237,203.757,219.359,72.7007,178.723,192.243
290,0,110.306,384.092,1117.76,122.758,120.145,1121.8,-87.8214,296.132,1196.05,-79.1711,191.668,1196.59,115.051,463.204,851.935,181.229,447.141,667.702,59.3073,456.2,552.24,-119.035,396.426,376.159,-201.796,344.672,379.876,-40.7196,380.438,243.164,75.3909,68.5624,838.541,78.5943,111.086,647.985,1.85374,117.669,447.422,-72.6215,168.311,249.359,-151.226,203.362,221.932,60.2399,178.731,192.084
291,0,109.382,384.016,1120.52,121.841,120.092,1124.56,-88.5426,295.472,1200.15,-79.5694,190.914,1200.2,118.079,463.184,857.62,185.807,446.43,674.188,67.0792,454.651,554.09,-102.472,395.993,368.122,-184.789,343.639,366.694,-16.1535,381.949,240.621,70.74,69.8163,840.592,68.6345,112.147,650.1,-9.08967,117.983,449.893,-84.3933,168.123,251.801,-163.21,202.894,224.924,47.6612,178.722,191.936
292,0,108.516,384.052,1123.33,120.987,120.147,1127.38,-89.2305,294.811,1204.29,-79.902,190.2,1203.88,121.081,463.196,863.382,189.397,445.69,680.481,74.4191,453.123,555.578,-85.1753,395.637,359.556,-166.568,342.6,352.813,8.8854,384.034,238.072,66.0644,71.066,842.766,58.8184,113.2,652.459,-19.9211,118.305,452.607,-96.1428,167.871,254.55,-175.161,202.369,228.344,34.972,178.691,191.79
293,0,107.712,384.202,1126.16,120.204,120.312,1130.21,-89.8654,294.166,1208.4,-80.1611,189.549,1207.59,123.985,463.24,869.133,191.971,444.932,686.461,81.3536,451.653,556.65,-67.069,395.356,350.634,-147.084,341.578,338.473,34.4329,386.614,235.627,61.3311,72.271,845.036,49.2124,114.205,655.02,-30.5922,118.615,455.528,-107.832,167.547,257.592,-187.057,201.8,232.182,22.1796,178.636,191.644
294,0,106.978,384.466,1128.99,119.496,120.587,1133.02,-90.425,293.557,1212.44,-80.3378,188.979,1211.29,126.71,463.317,874.788,193.528,444.17,692.021,87.9167,450.27,557.27,-48.0935,395.146,341.547,-126.317,340.611,323.931,60.5121,389.54,233.405,56.527,73.4025,847.379,39.8805,115.133,657.736,-41.0566,118.897,458.616,-119.424,167.145,260.901,-198.872,201.198,236.415,9.29232,178.554,191.494
295,0,106.319,384.842,1131.77,118.868,120.969,1135.79,-90.8864,293.006,1216.36,-80.423,188.511,1214.95,129.168,463.429,880.262,194.091,443.417,697.067,94.1473,449.003,557.419,-28.2197,395.004,332.497,-104.285,339.743,309.458,87.1187,392.607,231.534,51.661,74.4447,849.771,30.8846,115.968,660.555,-51.2699,119.138,461.828,-130.888,166.666,264.445,-210.584,200.571,241.006,-3.68082,178.449,191.345
296,0,105.743,385.324,1134.48,118.328,121.455,1138.48,-91.2264,292.541,1220.11,-80.4075,188.166,1218.51,131.268,463.58,885.469,193.709,442.688,701.526,100.086,447.873,557.093,-7.46486,394.924,323.689,-81.058,339.023,295.326,114.207,395.581,230.163,46.7649,75.3944,852.188,22.2845,116.702,663.423,-61.1905,119.329,465.114,-142.198,166.113,268.189,-222.172,199.914,245.912,-16.7296,178.322,191.203
297,0,105.257,385.906,1137.08,117.881,122.037,1141.07,-91.4235,292.19,1223.64,-80.2829,187.964,1221.94,132.922,463.78,890.321,192.461,441.994,705.341,105.771,446.894,556.306,14.0941,394.9,315.323,-56.7709,338.495,281.792,141.678,398.229,229.458,41.892,76.2598,854.604,14.1384,117.337,666.283,-70.7796,119.462,468.425,-153.332,165.493,272.092,-233.615,199.218,251.086,-29.8432,178.176,191.074
298,0,104.871,386.58,1139.55,117.535,122.709,1143.52,-91.4583,291.984,1226.91,-80.0425,187.923,1225.19,134.044,464.044,894.726,190.454,441.348,708.473,111.238,446.076,555.084,36.3096,394.924,307.579,-31.6322,338.193,269.089,169.367,400.346,229.591,37.1153,77.0584,856.984,6.50348,117.882,669.072,-80.0009,119.533,471.709,-164.273,164.813,276.111,-244.891,198.468,256.479,-43.0098,178.016,190.967
299,0,104.59,387.335,1141.84,117.297,123.46,1145.81,-91.3157,291.95,1229.87,-79.6822,188.06,1228.21,134.559,464.39,898.588,187.821,440.761,710.903,116.515,445.423,553.464,58.9576,394.987,300.604,-5.93122,338.136,257.407,197.038,401.779,230.72,32.5232,77.8139,859.29,-0.564261,118.35,671.728,-88.8208,119.543,474.916,-175.008,164.086,280.203,-255.978,197.646,262.051,-56.2181,177.843,190.89
300,0,104.424,388.162,1143.94,117.172,124.281,1147.89,-90.9851,292.119,1232.48,-79.201,188.392,1230.95,134.406,464.839,901.808,184.718,440.241,712.63,121.619,444.931,551.493,81.7378,395.077,294.498,19.9606,338.329,246.887,224.382,402.447,232.954,28.2156,78.553,861.476,-7.0101,118.758,674.186,-97.2075,119.49,477.994,-185.526,163.322,284.325,-266.852,196.736,267.765,-69.4572,177.66,190.844
301,0,104.379,389.049,1145.79,117.168,125.162,1149.74,-90.4617,292.515,1234.7,-78.6019,188.928,1233.34,133.548,465.411,904.286,181.321,439.792,713.669,126.562,444.592,549.219,104.281,395.184,289.304,45.5957,338.757,237.606,251.02,402.34,236.324,24.298,79.3025,863.487,-12.7809,119.122,676.377,-105.131,119.378,480.898,-195.817,162.533,288.439,-277.489,195.728,273.59,-82.7175,177.468,190.829
302,0,104.46,389.988,1147.37,117.288,126.095,1151.31,-89.7475,293.159,1236.48,-77.892,189.679,1235.34,131.983,466.115,905.929,177.819,439.415,714.05,131.341,444.394,546.698,126.161,395.296,285.003,70.4634,339.392,229.582,276.515,401.518,240.738,20.8759,80.0861,865.263,-17.8258,119.456,678.236,-112.562,119.209,483.584,-205.869,161.731,292.507,-287.86,194.623,279.5,-95.992,177.266,190.841
303,0,104.668,390.971,1148.63,117.535,127.072,1152.57,-88.8515,294.066,1237.8,-77.0832,190.647,1236.89,129.75,466.949,906.658,174.405,439.108,713.814,135.945,444.319,543.979,146.918,395.401,281.516,94.011,340.191,222.773,300.392,400.097,245.967,18.0482,80.9225,866.738,-22.0972,119.771,679.695,-119.471,118.985,486.015,-215.667,160.925,296.5,-297.939,193.435,285.47,-109.277,177.053,190.868
304,0,105.005,391.99,1149.54,117.909,128.085,1153.48,-87.7901,295.243,1238.61,-76.1917,191.831,1237.93,126.941,467.893,906.421,171.269,438.865,713.016,140.354,444.347,541.113,166.082,395.489,278.71,115.672,341.101,217.087,322.166,398.223,251.634,15.9018,81.8239,867.844,-25.5519,120.075,680.69,-125.828,118.71,488.16,-225.189,160.122,300.394,-307.695,192.189,291.479,-122.572,176.823,190.895
