Trajectories
100
,,Subj:LASI,,,Subj:RASI,,,Subj:LPSI,,,Subj:RPSI,,,Subj:LTHI,,,Subj:LKNE,,,Subj:LTIB,,,Subj:LANK,,,Subj:LHEE,,,Subj:LTOE,,,Subj:RTHI,,,Subj:RKNE,,,Subj:RTIB,,,Subj:RANK,,,Subj:RHEE,,,Subj:RTOE,,,
Frame,Sub Frame,X,Y,Z,X,Y,Z,X,Y,Z,X,Y,Z,X,Y,Z,X,Y,Z,X,Y,Z,X,Y,Z,X,Y,Z,X,Y,Z,X,Y,Z,X,Y,Z,X,Y,Z,X,Y,Z,X,Y,Z,X,Y,Z
,,mm,mm,mm,mm,mm,mm,mm,mm,mm,mm,mm,mm,mm,mm,mm,mm,mm,mm,mm,mm,mm,mm,mm,mm,mm,mm,mm,mm,mm,mm,mm,mm,mm,mm,mm,mm,mm,mm,mm,mm,mm,mm,mm,mm,mm,mm,mm,mm
1,0,,,,-21.7094,164.654,1108.75,-227.562,335.838,1186.72,-218.594,232.037,1171.37,-60.9722,491.935,847.931,-30.6977,451.316,651.577,-96.5175,447.794,484.956,-151.587,373.295,238.724,-219.729,325.189,197.408,-2.79356,361.069,191.63,-19.696,104.916,819.331,32.3368,126.822,637.211,-124.917,119.676,512.43,-298.696,162.268,393.984,-374.405,199.572,424.581,-265.742,182.822,243.812
2,0,,,,-24.1894,164.657,1111.65,-229.61,336.261,1189.41,-221.078,232.644,1174.83,-65.3966,491.516,848.573,-41.8414,450.968,651.459,-109.013,447.761,485.411,-163.954,373.398,239.295,-231.792,325.415,197.997,-15.189,360.768,191.364,-15.2015,104.756,823.924,42.1586,128.255,644.589,-112.794,120.942,512.705,-283.763,162.739,387.236,-361.729,199.71,413.965,-241.016,184.201,242.404
3,0,,,,-26.4438,164.648,1114.57,-231.559,336.59,1192.05,-223.374,233.138,1178.19,-70.2573,491.045,849.26,-53.0187,450.615,651.569,-121.457,447.675,486.072,-176.322,373.488,240.035,-243.92,325.654,198.859,-27.6202,360.511,191.088,-10.9031,104.601,828.664,50.8769,129.601,651.588,-100.957,122.126,512.711,-268.067,163.254,380.166,-347.92,200.057,402.79,-215.909,185.067,240.841
4,0,-25.6059,436.117,1132.25,-28.4722,164.628,1117.5,-233.408,336.825,1194.64,-225.484,233.518,1181.47,-75.5497,490.522,849.994,-64.2277,450.256,651.906,-133.849,447.536,486.939,-188.69,373.565,240.947,-256.112,325.903,199.992,-40.0871,360.297,190.804,-6.80365,104.451,833.545,58.4918,130.859,658.205,-89.4066,123.228,512.447,-251.61,163.812,372.783,-332.977,200.61,391.066,-190.427,185.428,239.123
5,0,-28.0616,435.582,1133.47,-30.274,164.598,1120.45,-235.157,336.963,1197.18,-227.406,233.784,1184.64,-81.2617,489.945,850.777,-75.463,449.891,652.469,-146.184,447.343,488.011,-201.059,373.627,242.031,-268.367,326.16,201.4,-52.5901,360.123,190.51,-2.9111,104.309,838.556,65.004,132.027,664.434,-78.1444,124.247,511.918,-234.398,164.413,365.1,-316.906,201.363,378.82,-164.581,185.312,237.25
6,0,-30.4179,435.1,1134.68,-31.8482,164.56,1123.41,-236.802,337.005,1199.67,-229.139,233.936,1187.72,-87.3687,489.312,851.611,-86.7127,449.518,653.251,-158.453,447.095,489.286,-213.426,373.669,243.29,-280.682,326.419,203.084,-65.1301,359.985,190.206,0.758919,104.176,843.672,70.4155,133.104,670.266,-67.1749,125.186,511.129,-216.444,165.054,357.152,-299.719,202.303,366.107,-138.397,184.768,235.226
7,0,-32.6743,434.671,1135.86,-33.1929,164.518,1126.37,-238.343,336.949,1202.1,-230.68,233.974,1190.69,-93.8301,488.621,852.501,-97.9567,449.137,654.246,-170.643,446.792,490.761,-225.788,373.685,244.729,-293.048,326.669,205.048,-77.7099,359.875,189.89,4.1813,104.057,848.853,74.7314,134.086,675.682,-56.5053,126.043,510.09,-197.774,165.734,348.99,-281.437,203.41,353.014,-111.916,183.868,233.064
8,0,-34.8296,434.295,1137.01,-34.3057,164.475,1129.32,-239.773,336.791,1204.47,-232.028,233.896,1193.56,-100.587,487.869,853.45,-109.163,448.743,655.44,-182.732,446.431,492.429,-238.142,373.667,246.353,-305.457,326.896,207.297,-90.3348,359.783,189.561,7.32093,103.952,854.039,77.9616,134.969,680.66,-46.147,126.82,508.816,-178.431,166.45,340.691,-262.103,204.662,339.661,-85.2009,182.707,230.79
9,0,-36.8808,433.973,1138.14,-35.1841,164.439,1132.25,-241.088,336.53,1206.77,-233.178,233.703,1196.3,-107.564,487.056,854.46,-120.289,448.331,656.816,-194.69,446.012,494.282,-250.483,373.604,248.17,-317.892,327.083,209.834,-103.013,359.695,189.217,10.1336,103.861,859.156,80.1241,135.749,685.17,-36.1157,127.52,507.327,-158.479,167.199,332.351,-241.78,206.031,326.204,-58.335,181.391,228.454
10,0,-38.8232,433.703,1139.25,-35.8252,164.415,1135.13,-242.278,336.16,1208.99,-234.126,233.392,1198.91,-114.67,486.186,855.531,-131.274,447.898,658.353,-206.482,445.534,496.31,-262.802,373.486,250.186,-330.337,327.209,212.663,-115.757,359.6,188.859,12.568,103.778,864.109,81.2469,136.42,689.179,-26.4319,128.147,505.646,-138.009,167.977,324.084,-220.564,207.487,312.82,-31.425,180.029,226.13
11,0,-40.6499,433.488,1140.33,-36.2268,164.412,1137.95,-243.337,335.678,1211.12,-234.867,232.964,1201.37,-121.801,485.262,856.659,-142.049,447.436,660.023,-218.063,444.998,498.497,-275.089,373.302,252.407,-342.77,327.257,215.783,-128.579,359.483,188.488,14.5699,103.692,868.794,81.372,136.981,692.655,-17.1211,128.706,503.802,-117.143,168.781,316.016,-198.585,209.003,299.704,-4.60005,178.724,223.921
12,0,-42.3512,433.324,1141.38,-36.3876,164.435,1140.67,-244.252,335.079,1213.14,-235.396,232.418,1203.66,-128.847,484.294,857.837,-152.529,446.939,661.793,-229.382,444.407,500.825,-287.332,373.045,254.838,-355.169,327.212,219.193,-141.494,359.331,188.109,16.086,103.585,873.098,80.5569,137.432,695.568,-8.21346,129.205,501.825,-96.0343,169.61,308.276,-176.017,210.553,287.051,21.9886,177.56,221.954
13,0,-43.9154,433.209,1142.4,-36.3077,164.492,1143.27,-245.014,334.36,1215.02,-235.71,231.755,1205.77,-135.7,483.292,859.053,-162.618,446.404,663.628,-240.384,443.768,503.27,-299.515,372.713,257.478,-367.512,327.064,222.89,-154.515,359.133,187.729,17.0697,103.435,876.911,78.8775,137.775,697.896,0.256885,129.653,499.746,-74.8692,170.461,300.987,-153.073,212.115,275.045,48.1683,176.604,220.376
14,0,-45.3285,433.141,1143.38,-35.9895,164.585,1145.71,-245.612,333.518,1216.76,-235.807,230.973,1207.68,-142.251,482.269,860.292,-172.215,445.826,665.485,-251.006,443.09,505.806,-311.617,372.311,260.321,-379.78,326.813,226.866,-167.654,358.883,187.356,17.4865,103.215,880.128,76.4289,138.018,699.624,8.25249,130.064,497.598,-53.8657,171.332,294.255,-130.011,213.667,263.85,73.7458,175.901,219.331
15,0,-46.5754,433.111,1144.31,-35.4376,164.716,1147.97,-246.037,332.554,1218.33,-235.686,230.077,1209.36,-148.402,481.238,861.533,-181.214,445.207,667.319,-261.183,442.386,508.402,-323.614,371.847,263.359,-391.955,326.471,231.114,-180.914,358.575,186.999,17.3201,102.901,882.663,73.3251,138.174,700.754,15.7337,130.451,495.409,-33.2699,172.224,288.164,-107.132,215.19,253.593,98.508,175.482,218.949
16,0,-47.6404,433.113,1145.18,-34.66,164.884,1150,-246.279,331.469,1219.71,-235.351,229.07,1210.79,-154.064,480.212,862.752,-189.507,444.55,669.081,-270.849,441.674,511.024,-335.474,371.343,266.575,-404.022,326.062,235.624,-194.294,358.21,186.667,16.577,102.473,884.449,69.6979,138.26,701.302,22.6601,130.828,493.207,-13.3498,173.136,282.766,-84.7692,216.668,244.364,122.223,175.364,219.317
17,0,-48.5085,433.134,1145.97,-33.6675,165.084,1151.78,-246.334,330.268,1220.87,-234.806,227.957,1211.97,-159.158,479.204,863.919,-196.991,443.865,670.718,-279.932,440.973,513.632,-347.162,370.823,269.947,-415.966,325.618,240.387,-207.789,357.793,186.362,15.2907,101.922,885.452,65.6939,138.3,701.298,28.9915,131.212,491.014,5.6116,174.069,278.08,-63.2859,218.081,236.208,144.641,175.561,220.458
18,0,-49.1664,433.16,1146.68,-32.4744,165.308,1153.28,-246.199,328.962,1221.79,-234.063,226.747,1212.87,-163.617,478.224,865,-203.571,443.166,672.177,-288.361,440.307,516.187,-358.636,370.321,273.449,-427.772,325.187,245.394,-221.383,357.332,186.085,13.525,101.253,885.668,61.4705,138.318,700.79,34.6896,131.617,488.849,23.3257,175.021,274.087,-43.0599,219.413,229.129,165.5,176.085,222.317
19,0,-49.604,433.175,1147.27,-31.0983,165.541,1154.48,-245.876,327.564,1222.44,-233.134,225.45,1213.49,-167.384,477.282,865.956,-209.159,442.474,673.4,-296.066,439.704,518.647,-369.846,369.874,277.054,-439.418,324.818,250.639,-235.058,356.839,185.83,11.3738,100.488,885.132,57.1899,138.344,699.838,39.7194,132.058,486.723,39.5089,175.994,270.739,-24.472,220.647,223.091,184.526,176.945,224.748
20,0,-49.8151,433.162,1147.74,-29.5599,165.77,1155.37,-245.37,326.091,1222.81,-232.039,224.08,1213.81,-170.409,476.385,866.741,-213.68,441.814,674.331,-302.976,439.191,520.971,-380.735,369.52,280.734,-450.871,324.568,256.12,-248.791,356.324,185.584,8.96008,99.6696,883.91,53.0127,138.406,698.513,44.0502,132.546,484.644,53.8938,176.986,267.958,-7.88888,221.772,218.027,201.446,178.148,227.519
21,0,-49.7992,433.1,1148.04,-27.8825,165.975,1155.93,-244.692,324.565,1222.87,-230.801,222.654,1213.83,-172.65,475.542,867.306,-217.071,441.216,674.916,-309.019,438.796,523.118,-391.239,369.301,284.465,-462.081,324.49,261.84,-262.558,355.801,185.333,6.4314,98.8534,882.104,49.0909,138.529,696.893,47.6571,133.087,482.615,66.2411,177.998,265.647,6.35417,222.778,213.845,215.994,179.694,230.325
22,0,-49.5612,432.97,1148.17,-26.0922,166.136,1156.17,-243.86,323.013,1222.61,-229.445,221.19,1213.56,-174.072,474.757,867.595,-219.284,440.712,675.102,-314.13,438.548,525.053,-401.285,369.252,288.232,-472.976,324.633,267.812,-276.335,355.279,185.061,3.9528,98.1074,879.84,45.5605,138.737,695.059,50.5214,133.686,480.634,76.3507,179.026,263.697,17.971,223.663,210.442,227.931,181.567,232.824
23,0,-49.113,432.755,1148.09,-24.2169,166.233,1156.09,-242.893,321.461,1222.01,-228.003,219.709,1213,-174.644,474.038,867.551,-220.285,440.337,674.843,-318.243,438.472,526.743,-410.793,369.405,292.027,-483.458,325.034,274.055,-290.097,354.763,184.755,1.69713,97.5029,877.262,42.5341,139.043,693.087,52.6315,134.339,478.696,84.0718,180.065,262.001,26.7417,224.432,207.706,237.055,183.733,234.67
24,0,-48.4725,432.438,1147.78,-22.2859,166.244,1155.7,-241.817,319.94,1221.06,-226.507,218.235,1212.16,-174.343,473.39,867.118,-220.052,440.123,674.1,-321.299,438.592,528.165,-419.673,369.785,295.857,-493.4,325.721,280.6,-303.826,354.255,184.41,-0.166919,97.1053,874.525,40.095,139.452,691.049,53.9831,135.038,476.795,89.3112,181.108,260.457,32.5277,225.092,205.531,243.225,186.136,235.561
25,0,-47.664,432.007,1147.23,-20.3295,166.15,1155.02,-240.661,318.48,1219.76,-224.992,216.791,1211.05,-173.153,472.82,866.242,-218.577,440.102,672.847,-323.243,438.927,529.303,-427.827,370.406,299.742,-502.65,326.703,287.487,-317.499,353.749,184.036,-1.4883,96.9649,871.778,38.2922,139.958,689.006,54.579,135.771,474.921,92.0396,182.146,258.98,35.2821,225.654,203.818,246.375,188.697,235.282
26,0,-46.7171,431.452,1146.41,-18.3786,165.935,1154.07,-239.458,317.109,1218.12,-223.492,215.401,1209.7,-171.065,472.336,864.882,-215.866,440.301,671.072,-324.03,439.493,530.151,-435.15,371.275,303.715,-511.03,327.972,294.762,-331.095,353.234,183.662,-2.14754,97.108,869.157,37.1373,140.545,687.004,54.4291,136.517,473.068,92.2932,183.163,257.508,35.0557,226.129,202.482,246.532,191.32,233.737
27,0,-45.666,430.771,1145.32,-16.4637,165.586,1152.88,-238.241,315.854,1216.14,-222.044,214.089,1208.12,-168.081,471.947,863.012,-211.938,440.738,668.778,-323.622,440.299,530.715,-441.536,372.386,307.822,-518.349,329.506,302.473,-344.578,352.699,183.339,-2.06983,97.5312,866.775,36.6038,141.184,685.076,53.5496,137.253,471.227,90.1736,184.141,256,31.9958,226.525,201.451,243.824,193.901,230.966
28,0,-44.5473,429.966,1143.96,-14.6146,165.094,1151.49,-237.045,314.736,1213.85,-220.679,212.873,1206.35,-164.218,471.663,860.63,-206.824,441.426,665.988,-321.992,441.349,531.012,-446.875,373.722,312.118,-524.414,331.262,310.666,-357.896,352.135,183.146,-1.23579,98.199,864.711,36.6276,141.838,683.236,51.9623,137.954,469.391,85.8422,185.059,254.441,26.3382,226.846,200.669,238.476,196.333,227.139
29,0,-43.3993,429.047,1142.32,-12.8601,164.456,1149.93,-235.902,313.771,1211.27,-219.428,211.774,1204.42,-159.503,471.497,857.763,-200.57,442.367,662.746,-319.128,442.642,531.07,-451.065,375.257,316.663,-529.043,333.184,319.374,-370.961,351.541,183.188,0.311573,99.0452,863.006,37.1108,142.461,681.487,49.6934,138.59,467.555,79.5119,185.895,252.834,18.3925,227.091,200.089,230.803,198.516,222.536
30,0,-42.2599,428.026,1140.43,-11.227,163.675,1148.24,-234.842,312.968,1208.45,-218.317,210.804,1202.35,-153.985,471.458,854.467,-193.233,443.555,659.117,-315.029,444.167,530.929,-454.015,376.954,321.515,-532.082,335.206,328.611,-383.641,350.931,183.592,2.465,99.9792,861.66,37.9274,143.004,679.816,46.7727,139.133,465.717,71.4351,186.625,251.202,8.52143,227.252,199.679,221.186,200.369,217.505
31,0,-41.1648,426.923,1138.3,-9.73968,162.759,1146.44,-233.893,312.331,1205.42,-217.368,209.974,1200.19,-147.731,471.559,850.828,-184.885,444.973,655.185,-309.712,445.911,530.638,-455.652,378.769,326.725,-533.422,337.248,338.363,-395.748,350.345,184.5,5.05695,100.894,860.636,38.9295,143.418,678.201,43.232,139.56,463.876,61.8897,187.227,249.573,-2.88359,227.318,199.409,210.045,201.836,212.413
32,0,-40.1462,425.762,1135.98,-8.41995,161.72,1144.57,-233.076,311.854,1202.23,-216.596,209.289,1197.98,-140.827,471.804,846.962,-175.607,446.597,651.052,-303.21,447.852,530.253,-455.931,380.652,332.332,-533.007,339.229,348.581,-407.034,349.845,186.051,7.86978,101.68,859.866,39.9566,143.658,676.612,39.1045,139.847,462.031,51.1639,187.682,247.983,-15.428,227.277,199.258,197.802,202.886,207.597
33,0,-39.2314,424.568,1133.5,-7.28616,160.576,1142.67,-232.406,311.528,1198.96,-216.013,208.749,1195.74,-133.383,472.198,843,-165.494,448.393,646.834,-295.571,449.96,529.838,-454.833,382.551,338.352,-530.846,341.067,359.175,-417.188,349.522,188.368,10.6514,102.231,859.256,40.8436,143.685,675.018,34.4233,139.978,460.186,39.5416,187.978,246.467,-28.7385,227.119,199.204,184.85,203.52,203.323
34,0,-38.442,423.368,1130.92,-6.35297,159.347,1140.76,-231.893,311.334,1195.65,-215.622,208.348,1193.53,-125.531,472.733,839.082,-154.648,450.323,642.659,-286.86,452.201,529.457,-452.369,384.413,344.776,-527.01,342.683,370.012,-425.852,349.481,191.539,13.1351,102.463,858.704,41.4304,143.473,673.387,29.2207,139.947,458.345,27.2881,188.109,245.051,-42.4828,226.839,199.23,171.529,203.765,199.763
35,0,-37.7931,422.189,1128.28,-5.63097,158.056,1138.88,-231.542,311.254,1192.38,-215.422,208.079,1191.38,-117.416,473.398,835.346,-143.177,452.347,638.658,-277.16,454.532,529.177,-448.577,386.192,351.56,-521.632,344.015,380.919,-432.641,349.835,195.594,15.0622,102.314,858.106,41.5696,143.008,671.692,23.5274,139.751,456.513,14.6397,188.078,243.755,-56.3845,226.437,199.319,158.104,203.67,196.986
36,0,-37.2933,421.056,1125.66,-5.12647,156.727,1137.03,-231.35,311.263,1189.21,-215.406,207.927,1189.33,-109.198,474.171,831.914,-131.196,454.42,634.961,-266.562,456.908,529.059,-443.52,387.846,358.628,-514.891,345.015,391.686,-437.164,350.683,200.497,16.2038,101.757,857.371,41.1337,142.294,669.912,17.3719,139.398,454.7,1.79535,187.894,242.591,-70.2311,225.925,199.455,144.764,203.3,194.968
37,0,-36.9449,419.99,1123.1,-4.84134,155.385,1135.26,-231.308,311.337,1186.2,-215.564,207.878,1187.42,-101.04,475.024,828.887,-118.815,456.499,631.694,-255.174,459.276,529.159,-437.274,389.346,365.864,-506.996,345.663,402.075,-439.064,352.091,206.136,16.3809,100.798,856.429,40.0204,141.349,668.038,10.7802,138.904,452.914,-11.0874,187.576,241.56,-83.8749,225.32,199.625,131.621,202.726,193.612
38,0,-36.7444,419.008,1120.68,-4.773,154.053,1133.57,-231.404,311.454,1183.42,-215.878,207.913,1185.67,-93.0975,475.924,826.337,-106.146,458.543,628.97,-243.109,461.583,529.525,-429.923,390.673,373.116,-498.168,345.966,411.83,-438.039,354.071,212.328,15.4789,99.4764,855.242,38.1558,140.205,666.068,3.77548,138.291,451.166,-23.8937,187.15,240.655,-97.2294,224.649,199.815,118.723,202.02,192.78
39,0,-36.6836,418.12,1118.45,-4.91456,152.751,1131.97,-231.624,311.592,1180.91,-216.331,208.014,1184.12,-85.5125,476.835,824.306,-93.2928,460.515,626.889,-230.487,463.773,530.191,-421.548,391.821,380.201,-488.621,345.961,420.688,-433.877,356.57,218.832,13.4565,97.8596,853.802,35.4952,138.911,664.012,-3.62134,137.588,449.47,-36.5494,186.643,239.867,-110.26,223.943,200.016,106.07,201.245,192.317
40,0,-36.7499,417.333,1116.47,-5.25505,151.5,1130.49,-231.947,311.733,1178.73,-216.901,208.161,1182.78,-78.3993,477.727,822.81,-80.3547,462.38,625.53,-217.433,465.794,531.179,-412.228,392.798,386.914,-478.538,345.711,428.394,-426.47,359.471,225.371,10.3461,96.0385,852.132,32.0229,137.52,661.892,-11.3919,136.828,447.838,-49.0162,186.089,239.18,-122.975,223.236,200.221,93.6276,200.456,192.076
41,0,-36.9284,416.648,1114.78,-5.77974,150.313,1129.14,-232.354,311.866,1176.91,-217.566,208.337,1181.69,-71.8381,478.569,821.845,-67.4217,464.107,624.954,-204.069,467.597,532.494,-402.027,393.619,393.034,-468.064,345.3,434.71,-415.825,362.601,231.657,6.24801,94.118,850.284,27.7485,136.097,659.736,-19.5197,136.045,446.288,-61.2861,185.517,238.583,-135.411,222.56,200.425,81.3453,199.694,191.939
42,0,-37.2019,416.06,1113.43,-6.47065,149.205,1127.92,-232.826,311.98,1175.49,-218.301,208.525,1180.85,-65.8692,479.343,821.396,-54.5762,465.672,625.198,-190.517,469.138,534.125,-391.002,394.308,398.34,-457.295,344.82,439.429,-402.064,365.76,237.42,1.31737,92.2087,848.327,22.7039,134.704,657.58,-27.9897,135.275,444.836,-73.3739,184.959,238.062,-147.623,221.942,200.63,69.1673,198.986,191.818
43,0,-37.5526,415.561,1112.44,-7.30698,148.184,1126.83,-233.342,312.071,1174.48,-219.084,208.709,1180.28,-60.4915,480.038,821.44,-41.8944,467.054,626.276,-176.892,470.387,536.044,-379.2,394.892,402.623,-446.272,344.36,442.38,-385.411,368.745,242.433,-4.25328,90.418,846.34,16.9379,133.403,655.463,-36.7875,134.552,443.501,-85.3101,184.439,237.611,-159.674,221.405,200.84,57.042,198.349,191.663
44,0,-37.9625,415.141,1111.83,-8.26575,147.258,1125.89,-233.885,312.139,1173.89,-219.892,208.88,1179.99,-55.6648,480.653,821.957,-29.4482,468.235,628.179,-163.304,471.319,538.206,-366.661,395.398,405.697,-434.988,343.993,443.435,-366.178,371.391,246.525,-10.254,88.8421,844.404,10.5109,132.25,653.428,-45.899,133.904,442.303,-97.1342,183.977,237.228,-171.624,220.961,201.064,44.9271,197.791,191.454
45,0,-38.414,414.789,1111.63,-9.32234,146.43,1125.1,-234.437,312.185,1173.73,-220.702,209.027,1179.96,-51.3167,481.193,822.928,-17.3072,469.203,630.877,-149.853,471.928,540.55,-353.422,395.848,407.413,-423.39,343.768,442.515,-344.738,373.597,249.593,-16.4778,87.56,842.589,3.49034,131.29,651.516,-55.3094,133.358,441.261,-108.889,183.586,236.916,-183.532,220.614,201.318,32.7912,197.312,191.192
46,0,-38.8901,414.494,1111.81,-10.451,145.704,1124.46,-234.984,312.215,1173.99,-221.495,209.144,1180.2,-47.3523,481.672,824.341,-5.5419,469.95,634.316,-136.63,472.215,543.005,-339.516,396.26,407.665,-411.389,343.698,439.587,-321.502,375.344,251.6,-22.7386,86.6282,840.954,-4.0538,130.557,649.769,-65.0023,132.932,440.396,-120.614,183.273,236.684,-195.441,220.358,201.62,20.6139,196.91,190.89
47,0,-39.3746,414.247,1112.39,-11.6256,145.082,1123.96,-235.512,312.233,1174.64,-222.251,209.23,1180.7,-43.6666,482.106,826.19,5.77402,470.472,638.423,-123.715,472.2,545.483,-324.973,396.647,406.393,-398.873,343.767,434.665,-296.89,376.7,252.567,-28.8859,86.0791,839.538,-12.0526,130.07,648.222,-74.9597,132.637,439.728,-132.345,183.038,236.548,-207.387,220.182,201.995,8.38327,196.579,190.568
48,0,-39.8516,414.042,1113.33,-12.82,144.563,1123.62,-236.01,312.246,1175.67,-222.953,209.285,1181.45,-40.1573,482.513,828.467,16.562,470.769,643.104,-111.175,471.909,547.893,-309.82,397.014,403.591,-385.715,343.929,427.807,-271.305,377.81,252.565,-34.8138,85.9202,838.362,-20.4405,129.833,646.909,-85.1604,132.48,439.276,-144.11,182.875,236.528,-219.391,220.066,202.471,-3.90616,196.312,190.244
49,0,-40.3057,413.875,1114.63,-14.0082,144.15,1123.41,-236.469,312.259,1177.04,-223.584,209.311,1182.43,-36.7367,482.909,831.161,26.7378,470.847,648.25,-99.068,471.382,550.137,-294.075,397.362,399.297,-371.783,344.123,419.112,-245.102,378.869,251.695,-40.4649,86.1363,837.432,-29.1563,129.841,645.856,-95.58,132.459,439.057,-155.928,182.771,236.645,-231.464,219.991,203.079,-16.2565,196.098,189.931
50,0,-40.721,413.746,1116.24,-15.1655,143.841,1123.34,-236.876,312.279,1178.73,-224.131,209.315,1183.63,-33.3407,483.307,834.255,36.2116,470.716,653.736,-87.4389,470.664,552.121,-277.743,397.694,393.598,-356.948,344.285,408.717,-218.571,380.091,250.078,-45.8282,86.6925,836.744,-38.1432,130.072,645.086,-106.19,132.565,439.088,-167.811,182.714,236.928,-243.607,219.931,203.857,-28.6683,195.929,189.635
51,0,-41.081,413.659,1118.14,-16.2682,143.639,1123.41,-237.224,312.31,1180.68,-224.579,209.305,1185.03,-29.9344,483.716,837.718,44.8897,470.394,659.427,-76.3222,469.805,553.754,-260.814,398.014,386.618,-341.091,344.359,396.791,-191.916,381.672,247.845,-50.9326,87.5395,836.284,-47.3477,130.497,644.615,-116.958,132.786,439.382,-179.759,182.686,237.402,-255.815,219.867,204.841,-41.1423,195.793,189.357
52,0,-41.3681,413.621,1120.29,-17.294,143.542,1123.61,-237.5,312.359,1182.87,-224.917,209.292,1186.61,-26.5137,484.141,841.508,52.6774,469.9,665.183,-65.7424,468.857,554.956,-243.262,398.331,378.518,-324.109,344.316,383.533,-165.249,383.758,245.132,-55.8363,88.6182,836.04,-56.7178,131.08,644.454,-127.846,133.105,439.947,-191.771,182.669,238.097,-268.078,219.779,206.07,-53.6799,195.678,189.094
53,0,-41.5636,413.639,1122.64,-18.2225,143.552,1123.93,-237.694,312.431,1185.24,-225.133,209.29,1188.34,-23.1032,484.583,845.566,59.4827,469.26,670.858,-55.7152,467.871,555.662,-225.046,398.66,369.484,-305.915,344.157,369.169,-138.594,386.415,242.078,-60.6145,89.8657,836,-66.2001,131.781,644.606,-138.811,133.502,440.789,-203.835,182.646,239.038,-280.383,219.648,207.585,-66.2834,195.572,188.839
54,0,-41.6472,413.722,1125.17,-19.0352,143.669,1124.36,-237.792,312.534,1187.74,-225.217,209.313,1190.2,-19.7511,485.039,849.817,65.222,468.504,676.314,-46.2483,466.892,555.826,-206.113,399.025,359.727,-286.447,343.916,353.951,-111.902,389.624,238.829,-65.3457,91.2199,836.16,-75.7374,132.559,645.071,-149.803,133.955,441.907,-215.937,182.601,240.251,-292.713,219.462,209.421,-78.9555,195.464,188.587
55,0,-41.5977,413.879,1127.83,-19.7157,143.893,1124.91,-237.781,312.677,1190.34,-225.161,209.378,1192.17,-16.5228,485.507,854.175,69.8248,467.665,681.416,-37.3433,465.963,555.422,-186.411,399.452,349.472,-265.673,343.66,338.151,-85.0741,393.276,235.536,-70.0989,92.6239,836.519,-85.2655,133.375,645.84,-160.768,134.442,443.297,-228.06,182.521,241.756,-305.056,219.211,211.616,-91.6985,195.344,188.333
56,0,-41.3931,414.117,1130.57,-20.2502,144.223,1125.57,-237.645,312.872,1192.99,-224.956,209.502,1194.23,-13.4947,485.984,858.542,73.2408,466.778,686.047,-28.9965,465.118,554.448,-165.903,399.97,338.959,-243.595,343.478,322.059,-57.9935,397.189,232.366,-74.923,94.0293,837.083,-94.7107,134.195,646.896,-171.644,134.942,444.948,-240.181,182.394,243.572,-317.395,218.888,214.2,-104.513,195.205,188.075
57,0,-41.0114,414.441,1133.35,-20.6271,144.657,1126.33,-237.368,313.133,1195.64,-224.596,209.703,1196.34,-10.747,486.471,862.814,75.4452,465.878,690.104,-21.2011,464.384,552.926,-144.578,400.607,328.433,-220.263,343.465,305.978,-30.5625,401.134,229.494,-79.8385,95.3983,837.858,-103.988,134.99,648.214,-182.366,135.434,446.842,-252.277,182.213,245.709,-329.717,218.489,217.2,-117.399,195.04,187.814
58,0,-40.4317,414.852,1136.13,-20.8377,145.194,1127.19,-236.936,313.476,1198.25,-224.077,210,1198.49,-8.3588,486.972,866.881,76.4446,465.002,693.508,-13.9477,463.783,550.898,-122.476,401.381,318.134,-195.785,343.715,290.216,-2.73503,404.868,227.102,-84.8323,96.7048,838.848,-113.001,135.738,649.76,-192.86,135.901,448.957,-264.319,181.973,248.173,-342.004,218.011,220.635,-130.353,194.847,187.555
59,0,-39.6349,415.348,1138.86,-20.8762,145.832,1128.13,-236.332,313.92,1200.78,-223.396,210.412,1200.63,-6.403,487.499,870.638,76.2812,464.182,696.207,-7.22589,463.327,548.425,-99.7004,402.304,308.294,-170.342,344.297,275.073,25.4525,408.167,225.37,-89.8563,97.9344,840.05,-121.64,136.427,651.491,-203.048,136.327,451.264,-276.274,181.671,250.966,-354.236,217.457,224.519,-143.369,194.627,187.301
60,0,-38.6053,415.925,1141.51,-20.7396,146.565,1129.16,-235.544,314.485,1203.2,-222.552,210.953,1202.75,-4.94174,488.069,873.982,75.0356,463.447,698.173,-1.02535,463.024,545.581,-76.4345,403.374,299.121,-144.195,345.254,260.83,53.8595,410.855,224.456,-94.8289,99.0841,841.449,-129.785,137.049,653.353,-212.85,136.7,453.729,-288.106,181.308,254.079,-366.387,216.828,228.858,-156.44,194.382,187.058
61,0,-37.3313,416.574,1144.02,-20.4285,147.392,1130.25,-234.563,315.193,1205.46,-221.55,211.641,1204.8,-4.02182,488.703,876.822,72.8274,462.822,699.409,4.66334,462.875,542.451,-52.9467,404.576,290.789,-117.696,346.591,247.736,82.2299,412.828,224.478,-99.639,100.16,843.015,-137.306,137.605,655.283,-222.18,137.009,456.315,-299.768,180.886,257.502,-378.421,216.131,233.652,-169.559,194.117,186.83
62,0,-35.807,417.284,1146.36,-19.9464,148.306,1131.39,-233.383,316.064,1207.54,-220.395,212.487,1206.75,-3.66973,489.426,879.078,69.8136,462.324,699.944,9.84788,462.876,539.123,-29.5916,405.883,283.427,-91.2846,348.275,235.99,110.192,414.063,225.489,-104.153,101.177,844.7,-144.07,138.099,657.211,-230.95,137.247,458.982,-311.21,180.408,261.217,-390.29,215.373,238.897,-182.72,193.84,186.617
63,0,-34.0327,418.043,1148.48,-19.3004,149.305,1132.56,-232.002,317.116,1209.4,-219.097,213.5,1208.57,-3.88617,490.256,880.693,66.1842,461.965,699.833,14.5336,463.02,535.685,-6.80039,407.26,277.109,-65.4803,350.239,225.731,137.273,414.618,227.455,-108.221,102.155,846.441,-149.942,138.54,659.058,-239.074,137.409,461.686,-322.369,179.879,265.202,-401.929,214.564,244.587,-195.918,193.559,186.416
64,0,-32.0158,418.838,1150.36,-18.5009,150.382,1133.73,-230.427,318.366,1211.01,-217.669,214.688,1210.21,-4.64071,491.208,881.629,62.1543,461.746,699.151,18.7233,463.295,532.219,14.9381,408.663,271.847,-40.8638,352.391,217.029,162.922,414.617,230.235,-111.688,103.116,848.157,-154.792,138.937,660.743,-246.463,137.491,464.389,-333.176,179.302,269.436,-413.256,213.717,250.714,-209.156,193.283,186.219
65,0,-29.7712,419.657,1151.96,-17.5618,151.533,1134.88,-228.668,319.823,1212.36,-216.129,216.051,1211.65,-5.86733,492.279,881.877,57.955,461.663,697.991,22.4171,463.685,528.801,35.1052,410.046,267.593,-18.0472,354.624,209.884,186.547,414.228,233.576,-114.403,104.085,849.759,-158.498,139.3,662.184,-253.035,137.491,467.049,-343.551,178.682,273.894,-424.169,212.844,257.273,-222.44,193.021,186.016
66,0,-27.3211,420.487,1153.25,-16.4997,152.752,1135.97,-226.745,321.492,1213.41,-214.497,217.587,1212.84,-7.46192,493.453,881.459,53.821,461.705,696.458,25.6126,464.174,525.491,53.1861,411.364,264.243,2.36292,356.828,204.226,207.557,413.639,237.127,-116.224,105.083,851.149,-160.958,139.638,663.301,-258.709,137.408,469.633,-353.406,178.019,278.554,-434.548,211.96,264.257,-235.783,192.785,185.796
67,0,-24.6952,421.321,1154.22,-15.3344,154.035,1136.96,-224.682,323.37,1214.16,-212.799,219.286,1213.74,-9.28302,494.694,880.43,49.9773,461.856,694.658,28.306,464.744,522.339,68.7074,412.573,261.649,19.8079,358.898,199.928,225.412,413.026,240.46,-117.032,106.13,852.233,-162.086,139.955,664.022,-263.413,137.242,472.11,-362.647,177.314,283.399,-444.257,211.078,271.669,-249.2,192.584,185.553
68,0,-21.9296,422.151,1154.86,-14.0878,155.374,1137.8,-222.51,325.443,1214.58,-211.061,221.137,1214.33,-11.1569,495.949,878.879,46.6249,462.095,692.697,30.4925,465.374,519.382,81.273,413.634,259.637,33.8204,360.746,196.82,239.668,412.531,243.122,-116.734,107.235,852.921,-161.823,140.254,664.284,-267.082,136.994,474.459,-371.175,176.567,288.414,-453.147,210.211,279.508,-262.705,192.429,185.29
69,0,-19.0658,422.975,1155.15,-12.7835,156.764,1138.47,-220.268,327.693,1214.68,-209.313,223.122,1214.56,-12.8877,497.158,876.928,43.9284,462.404,690.671,32.168,466.047,516.642,90.5968,414.517,258.023,44.0636,362.305,194.704,250.02,412.247,244.693,-115.273,108.404,853.144,-160.14,140.533,664.043,-269.66,136.665,476.666,-378.891,175.774,293.592,-461.066,209.371,287.779,-276.301,192.327,185.028
70,0,-16.1501,423.793,1155.12,-11.4466,158.197,1138.92,-217.997,330.089,1214.44,-207.585,225.217,1214.43,-14.2724,498.256,874.722,42.0038,462.764,688.663,33.3295,466.748,514.128,96.5265,415.197,256.639,50.3616,363.534,193.378,256.336,412.209,244.843,-112.625,109.632,852.852,-157.035,140.789,663.271,-271.104,136.258,478.723,-385.696,174.934,298.934,-467.864,208.564,296.484,-289.968,192.283,184.812
71,0,-13.2312,424.608,1154.76,-10.1023,159.664,1139.11,-215.741,332.593,1213.87,-205.907,227.396,1213.91,-15.1203,499.19,872.424,40.9104,463.164,686.734,33.9764,467.464,511.842,99.0554,415.662,255.342,52.7161,364.416,192.644,258.671,412.402,243.392,-108.812,110.906,852.021,-152.541,141.015,661.962,-271.383,135.777,480.636,-391.496,174.043,304.443,-473.401,207.795,305.617,-303.656,192.298,184.71
72,0,-10.3596,425.424,1154.1,-8.77547,161.155,1139.01,-213.545,335.161,1212.99,-204.309,229.628,1213,-15.2748,499.93,870.197,40.6462,463.599,684.927,34.1105,468.186,509.774,98.323,415.907,254.029,51.3073,364.958,192.33,257.268,412.77,240.341,-103.891,112.201,850.661,-146.715,141.204,660.135,-270.479,135.227,482.414,-396.209,173.1,310.13,-477.562,207.067,315.165,-317.262,192.363,184.821
73,0,-7.58529,426.25,1153.17,-7.48988,162.66,1138.59,-211.456,337.742,1211.81,-202.817,231.882,1211.7,-14.6351,500.472,868.19,41.1479,464.073,683.257,33.7363,468.911,507.907,94.6003,415.941,252.646,46.4771,365.192,192.291,252.533,413.233,235.877,-97.9604,113.491,848.81,-139.645,141.348,657.831,-268.389,134.616,484.077,-399.761,172.109,316.004,-480.259,206.381,325.096,-330.624,192.458,185.263
74,0,-4.95638,427.092,1152,-6.26736,164.166,1137.85,-209.516,340.282,1210.35,-201.456,234.122,1210.03,-13.1755,500.849,866.522,42.295,464.599,681.723,32.8599,469.639,506.221,88.2649,415.783,251.178,38.6975,365.162,192.415,245.002,413.71,230.35,-91.1514,114.738,846.535,-131.437,141.444,655.116,-265.121,133.954,485.649,-402.094,171.073,322.073,-481.439,205.736,335.36,-343.511,192.549,186.167
75,0,-2.51751,427.961,1150.63,-5.12717,165.663,1136.77,-207.761,342.727,1208.64,-200.245,236.315,1208,-10.9573,501.125,865.263,43.919,465.197,680.299,31.488,470.376,504.691,79.7663,415.466,249.65,28.5266,364.928,192.623,235.276,414.129,224.218,-83.623,115.909,843.925,-122.216,141.489,652.075,-260.7,133.252,487.157,-403.167,170.005,328.34,-481.094,205.134,345.878,-355.619,192.588,187.666
76,0,-0.308454,428.864,1149.09,-4.08545,167.138,1135.36,-206.226,345.024,1206.73,-199.197,238.426,1205.66,-8.13292,501.387,864.427,45.8157,465.892,678.95,29.6262,471.13,503.29,69.5867,415.028,248.109,16.5592,364.552,192.862,223.972,414.444,217.976,-75.5544,116.966,841.089,-112.114,141.487,648.814,-255.163,132.526,488.631,-402.953,168.918,334.791,-479.254,204.575,356.547,-366.581,192.51,189.869
77,0,1.63716,429.807,1147.43,-3.15486,168.579,1133.65,-204.932,347.125,1204.66,-198.321,240.423,1203.06,-4.9381,501.733,863.968,47.7597,466.712,677.626,27.278,471.908,501.991,58.2022,414.516,246.616,3.3771,364.099,193.1,211.661,414.635,212.083,-67.1353,117.882,838.143,-101.271,141.446,645.449,-248.559,131.793,490.101,-401.444,167.834,341.401,-475.988,204.066,367.233,-375.981,192.244,192.852
78,0,3.29279,430.797,1145.68,-2.34429,169.976,1131.66,-203.897,348.99,1202.48,-197.619,242.278,1200.24,-1.67406,502.259,863.783,49.5207,467.683,676.278,24.4436,472.722,500.767,46.0489,413.98,245.227,-10.4932,363.624,193.323,198.826,414.706,206.903,-58.5568,118.636,835.204,-89.8211,141.38,642.106,-240.949,131.074,491.591,-398.646,166.774,348.119,-471.4,203.61,377.776,-383.384,191.715,196.636
79,0,4.63971,431.836,1143.88,-1.6589,171.32,1129.44,-203.127,350.586,1200.25,-197.088,243.967,1197.29,1.32016,503.038,863.73,50.8787,468.824,674.858,21.1195,473.577,499.595,33.4969,413.466,243.99,-24.6128,363.176,193.526,185.834,414.679,202.663,-50.0013,119.218,832.38,-77.8954,141.308,638.914,-232.402,130.391,493.123,-394.58,165.766,354.876,-465.619,203.215,387.995,-388.367,190.863,201.181
80,0,5.66744,432.927,1142.07,-1.10022,172.602,1127.05,-202.618,351.895,1198.02,-196.719,245.471,1194.27,3.70154,504.115,863.643,51.6384,470.146,673.329,17.2993,474.479,498.453,20.8351,413.012,242.934,-38.6479,362.785,193.71,172.932,414.588,199.446,-41.6339,119.632,829.765,-65.6143,141.256,635.998,-222.996,129.767,494.71,-389.281,164.835,361.576,-458.787,202.881,397.693,-390.558,189.65,206.378
81,0,6.37384,434.068,1140.28,-0.666381,173.819,1124.55,-202.36,352.907,1195.85,-196.498,246.775,1191.25,5.15883,505.495,863.363,51.6403,471.648,671.665,12.9742,475.427,497.327,8.26634,412.65,242.071,-52.3746,362.472,193.881,160.252,414.466,197.204,-33.5945,119.898,827.436,-53.0868,141.25,633.478,-212.817,129.226,496.358,-382.792,164.005,368.101,-451.048,202.606,406.663,-389.669,188.08,212.059
82,0,6.76497,435.257,1138.52,-0.35258,174.966,1122.02,-202.333,353.627,1193.8,-196.409,247.874,1188.32,5.44576,507.145,862.758,50.7683,473.317,669.861,8.13556,476.416,496.207,-4.08758,412.397,241.396,-65.6716,362.239,194.047,147.838,414.342,195.794,-25.9929,120.044,825.448,-40.4107,141.322,631.459,-201.951,128.794,498.064,-375.165,163.297,374.314,-442.541,202.382,414.704,-385.526,186.205,218.004
83,0,6.85463,436.487,1136.84,-0.151487,176.044,1119.51,-202.511,354.071,1191.92,-196.433,248.767,1185.55,4.40711,508.999,861.749,48.9537,475.126,667.925,2.77676,477.437,495.094,-16.1744,412.258,240.892,-78.5031,362.082,194.221,135.669,414.239,195.014,-18.9059,120.114,823.837,-27.6729,141.502,630.03,-190.493,128.491,499.816,-366.458,162.725,380.062,-433.385,202.19,421.619,-378.088,184.129,223.965
84,0,6.66364,437.753,1135.24,-0.0537449,177.053,1117.12,-202.864,354.266,1190.27,-196.549,249.46,1183.02,1.99463,510.968,860.316,46.1748,477.036,665.888,-3.10486,478.475,493.994,-27.9951,412.227,240.535,-90.8987,361.985,194.416,123.689,414.168,194.649,-12.3761,120.153,822.622,-14.9522,141.819,629.261,-178.533,128.338,501.593,-356.731,162.3,385.186,-423.675,202.007,427.234,-367.442,182.003,229.687
85,0,6.21898,439.043,1133.76,-0.0484282,177.994,1114.92,-203.356,354.248,1188.9,-196.737,249.964,1180.79,-1.72933,512.951,858.509,42.4532,478.999,663.794,-9.50613,479.513,492.923,-39.5869,412.289,240.304,-102.93,361.931,194.651,111.828,414.133,194.504,-6.41487,120.209,821.812,-2.32206,142.3,629.201,-166.165,128.353,503.367,-346.045,162.023,389.529,-413.478,201.805,431.395,-353.798,180.008,234.933
86,0,5.55266,440.348,1132.4,-0.123439,178.872,1112.97,-203.953,354.058,1187.84,-196.976,250.297,1178.92,-6.60068,514.851,856.437,37.8468,480.96,661.701,-16.4171,480.531,491.903,-51.0064,412.426,240.181,-114.689,361.906,194.949,100.02,414.13,194.424,-1.00598,120.328,821.407,10.1464,142.964,629.879,-153.479,128.545,505.103,-334.462,161.893,392.939,-402.829,201.556,433.978,-337.461,178.331,239.5
87,0,4.7006,441.654,1131.19,-0.265807,179.689,1111.35,-204.617,353.742,1187.13,-197.248,250.48,1177.46,-12.3735,516.58,854.251,32.4405,482.862,659.674,-23.8206,481.508,490.964,-62.3165,412.616,240.155,-126.274,361.898,195.336,88.213,414.152,194.308,3.8888,120.547,821.406,22.3812,143.826,631.298,-140.563,128.924,506.764,-322.037,161.902,395.286,-391.737,201.241,434.892,-318.797,177.14,243.242
88,0,3.7014,442.947,1130.14,-0.461875,180.447,1110.09,-205.315,353.345,1186.78,-197.536,250.538,1176.44,-18.7487,518.073,852.127,26.3367,484.65,657.781,-31.6929,482.422,490.14,-73.5761,412.84,240.229,-137.773,361.904,195.84,76.3728,414.188,194.103,8.32329,120.889,821.809,34.3074,144.891,633.442,-127.501,129.49,508.307,-308.824,162.041,396.46,-380.182,200.849,434.078,-298.197,176.555,246.07
89,0,2.59509,444.212,1129.27,-0.69737,181.146,1109.25,-206.014,352.912,1186.81,-197.826,250.497,1175.89,-25.4069,519.289,850.238,19.6444,486.274,656.086,-40.0047,483.255,489.47,-84.8341,413.082,240.411,-149.258,361.927,196.49,64.4805,414.229,193.8,12.3607,121.366,822.62,45.8456,146.156,636.274,-114.371,130.238,509.691,-294.869,162.301,396.385,-368.127,200.389,431.512,-276.045,176.634,247.961
90,0,1.42208,445.433,1128.6,-0.957361,181.788,1108.86,-206.684,352.481,1187.22,-198.106,250.385,1175.83,-32.0426,520.211,848.735,12.4703,487.689,654.649,-48.7222,483.986,488.991,-96.127,413.333,240.72,-160.784,361.978,197.316,52.5305,414.27,193.416,16.0677,121.974,823.845,56.9112,147.609,639.737,-101.246,131.159,510.875,-280.208,162.672,395.021,-355.514,199.884,427.205,-252.689,177.359,248.944
91,0,0.221996,446.593,1128.14,-1.22615,182.369,1108.94,-207.302,352.087,1188.02,-198.365,250.229,1176.24,-38.3946,520.841,847.729,4.91204,488.863,653.517,-57.8092,484.602,488.741,-107.479,413.587,241.179,-172.384,362.071,198.346,40.5256,414.307,192.987,19.5101,122.694,825.492,67.4155,149.228,643.756,-88.1943,132.237,511.824,-264.874,163.148,392.364,-342.276,199.378,421.204,-228.423,178.642,249.094
92,0,-0.967118,447.677,1127.9,-1.48711,182.887,1109.49,-207.846,351.754,1189.17,-198.593,250.051,1177.11,-44.2688,521.2,847.281,-2.94771,489.774,652.725,-67.2276,485.09,488.752,-118.903,413.845,241.815,-184.075,362.222,199.602,28.4722,414.337,192.548,22.7489,123.498,827.566,77.2672,150.982,648.244,-75.2756,133.452,512.508,-248.886,163.728,388.451,-328.343,198.924,413.589,-203.482,180.345,248.515
93,0,-2.1096,448.67,1127.9,-1.72253,183.337,1110.52,-208.299,351.5,1190.67,-198.781,249.874,1178.43,-49.5525,521.315,847.401,-11.0427,490.41,652.298,-76.9388,485.442,489.053,-130.405,414.108,242.652,-195.862,362.444,201.105,16.3772,414.361,192.131,25.8378,124.351,830.069,86.3752,152.834,653.098,-62.5453,134.781,512.901,-232.261,164.414,383.356,-313.639,198.588,404.478,-178.042,182.296,247.321
94,0,-3.17271,449.557,1128.14,-1.91352,183.717,1112,-208.646,351.331,1192.48,-198.919,249.713,1180.15,-54.2168,521.22,848.052,-19.3232,490.77,652.242,-86.9038,485.651,489.664,-141.983,414.375,243.715,-207.736,362.743,202.87,4.2453,414.378,191.755,28.8218,125.214,832.994,94.6515,154.741,658.208,-50.0527,136.198,512.991,-215.008,165.211,377.189,-298.099,198.435,394.018,-152.227,184.326,245.628
95,0,-4.12707,450.327,1128.63,-2.04001,184.021,1113.91,-208.879,351.247,1194.57,-198.995,249.58,1182.23,-58.3094,520.942,849.16,-27.7529,490.862,652.558,-97.0835,485.717,490.599,-153.633,414.645,245.021,-219.684,363.118,204.905,-7.92188,414.387,191.427,31.7354,126.049,836.319,102.015,156.654,663.459,-37.8417,137.674,512.77,-197.137,166.129,370.093,-281.664,198.527,382.39,-126.125,186.289,243.543
96,0,-4.94689,450.972,1129.38,-2.08082,184.248,1116.22,-208.986,351.238,1196.89,-198.998,249.48,1184.62,-61.9377,520.508,850.63,-36.3052,490.702,653.23,-107.437,485.639,491.864,-165.347,414.914,246.583,-231.688,363.558,207.218,-20.1265,414.385,191.144,34.6015,126.822,840.012,108.395,158.524,668.732,-25.9515,139.182,512.241,-178.659,167.178,362.234,-264.295,198.915,369.804,-99.8004,188.085,241.156
97,0,-5.61009,451.487,1130.37,-2.01402,184.396,1118.89,-208.962,351.289,1199.4,-198.914,249.413,1187.27,-65.2469,519.933,852.354,-44.9572,490.311,654.239,-117.923,485.424,493.456,-177.113,415.173,248.407,-243.726,364.044,209.808,-32.374,414.367,190.895,37.4307,127.503,844.021,113.736,160.303,673.909,-14.4172,140.694,511.417,-159.595,168.37,353.802,-245.971,199.639,356.492,-73.3071,189.667,238.551
98,0,-6.09834,451.867,1131.6,-1.8173,184.468,1121.87,-208.8,351.38,1202.06,-198.727,249.373,1190.12,-68.394,519.229,854.232,-53.6849,489.716,655.556,-128.494,485.079,495.365,-188.917,415.409,250.491,-255.778,364.55,212.677,-44.6729,414.325,190.663,40.2199,128.07,848.278,117.999,161.944,678.878,-3.27077,142.185,510.318,-139.978,169.714,344.998,-226.7,200.719,342.706,-46.7018,191.042,235.804
99,0,-6.39696,452.116,1133.04,-1.46857,184.468,1125.1,-208.495,351.484,1204.81,-198.419,249.347,1193.1,-71.5245,518.404,856.177,-62.4568,488.946,657.149,-139.099,484.614,497.571,-200.74,415.608,252.828,-267.822,365.05,215.821,-57.0333,414.251,190.432,42.9523,128.507,852.703,121.167,163.405,683.537,7.45848,143.634,508.971,-119.861,171.217,336.027,-206.522,202.162,328.707,-20.0524,192.26,233
100,0,-6.49489,452.236,1134.69,-0.946717,184.405,1128.52,-208.042,351.575,1207.6,-197.972,249.32,1196.16,-74.7515,517.459,858.121,-71.2305,488.03,658.979,-149.682,484.044,500.05,-212.555,415.756,255.405,-279.839,365.517,219.239,-69.4668,414.138,190.19,45.5978,128.8,857.198,123.244,164.652,687.794,17.7431,145.021,507.407,-99.319,172.882,327.095,-185.512,203.96,314.758,6.55591,193.396,230.237
101,0,-6.38449,452.234,1136.51,-0.232404,184.288,1132.08,-207.436,351.626,1210.39,-197.367,249.271,1199.23,-78.142,516.402,860.022,-79.9485,487,661.006,-160.179,483.387,502.77,-224.335,415.843,258.205,-291.812,365.928,222.927,-81.9855,413.977,189.929,48.1143,128.938,861.659,124.262,165.66,691.574,27.557,146.332,505.662,-78.4564,174.703,318.392,-163.785,206.091,301.112,33.0167,194.533,227.633
102,0,-6.06154,452.12,1138.47,0.691059,184.129,1135.72,-206.672,351.609,1213.12,-196.588,249.177,1202.25,-81.7105,515.239,861.856,-88.5369,485.889,663.185,-170.518,482.663,505.694,-236.043,415.861,261.206,-303.725,366.272,226.885,-94.6007,413.761,189.646,50.4513,128.914,865.972,124.277,166.413,694.818,36.875,147.558,503.773,-57.4067,176.672,310.095,-141.495,208.521,288.006,59.2012,195.745,225.327
103,0,-5.52513,451.902,1140.53,1.83684,183.943,1139.35,-205.746,351.5,1215.76,-195.619,249.015,1205.17,-85.4195,513.981,863.619,-96.9046,484.729,665.467,-180.619,481.895,508.78,-247.642,415.811,264.388,-315.564,366.544,231.11,-107.322,413.487,189.346,52.5542,128.719,870.025,123.37,166.907,697.485,45.6728,148.695,501.777,-36.3352,178.771,302.35,-118.841,211.208,275.646,84.9588,197.083,223.469
104,0,-4.77763,451.592,1142.66,3.21376,183.743,1142.92,-204.657,351.277,1218.26,-194.447,248.759,1207.93,-89.1872,512.648,865.315,-104.945,483.551,667.799,-190.395,481.109,511.981,-259.091,415.697,267.729,-327.317,366.751,235.605,-120.155,413.152,189.038,54.3701,128.346,873.709,121.65,167.148,699.555,53.9265,149.741,499.706,-15.4375,180.978,295.272,-96.0598,214.102,264.202,110.118,198.574,222.205
105,0,-3.8248,451.201,1144.8,4.82563,183.542,1146.36,-203.404,350.922,1220.56,-193.065,248.386,1210.49,-92.8986,511.259,866.953,-112.536,482.39,670.125,-199.753,480.332,515.247,-270.349,415.535,271.211,-338.967,366.909,240.37,-133.103,412.757,188.733,55.8544,127.793,876.923,119.246,167.154,701.025,61.6135,150.701,497.591,5.06293,183.263,288.94,-73.426,217.148,253.803,134.49,200.215,221.653
106,0,-2.67577,450.737,1146.9,6.67066,183.352,1149.6,-201.989,350.422,1222.65,-191.47,247.877,1212.78,-96.4194,509.841,868.537,-119.549,481.276,672.381,-208.596,479.593,518.526,-281.377,415.342,274.82,-350.494,367.041,245.406,-146.161,412.305,188.445,56.9776,127.062,879.582,116.31,166.953,701.912,68.7123,151.583,495.456,24.9191,185.593,283.392,-51.2479,220.284,244.529,157.866,201.987,221.882
107,0,-1.34316,450.21,1148.92,8.74117,183.179,1152.58,-200.417,349.769,1224.47,-189.665,247.215,1214.78,-99.609,508.422,870.062,-125.848,480.243,674.502,-216.823,478.922,521.763,-292.137,415.145,278.542,-361.868,367.172,250.716,-159.32,411.805,188.181,57.7312,126.167,881.62,113.007,166.582,702.246,75.203,152.395,493.32,43.8673,187.933,278.626,-29.8597,223.447,236.413,180.027,203.852,222.89
108,0,0.156913,449.627,1150.8,11.0235,183.027,1155.23,-198.697,348.96,1225.99,-187.662,246.388,1216.45,-102.333,507.031,871.508,-131.299,479.321,676.416,-224.335,478.347,524.904,-302.588,414.971,282.373,-373.048,367.327,256.303,-172.564,411.266,187.948,58.1326,125.134,882.992,109.511,166.084,702.073,81.0679,153.15,491.196,61.6345,190.249,274.604,-9.6138,226.575,229.442,200.737,205.765,224.584
109,0,1.80479,448.991,1152.49,13.4979,182.895,1157.5,-196.842,347.997,1227.18,-185.477,245.391,1217.74,-104.47,505.696,872.835,-135.771,478.542,678.048,-231.032,477.897,527.895,-312.691,414.85,286.308,-383.974,367.53,262.171,-185.873,410.703,187.744,58.227,124,883.679,106.004,165.505,701.447,86.2924,153.858,489.09,77.9482,192.506,271.254,9.13077,229.609,223.568,219.749,207.68,226.782
110,0,3.57745,448.307,1153.93,16.1392,182.777,1159.33,-194.869,346.886,1228,-183.134,244.224,1218.65,-105.919,504.443,873.987,-139.149,477.932,679.326,-236.821,477.597,530.684,-322.4,414.809,290.347,-394.566,367.797,268.326,-199.227,410.13,187.56,58.0878,122.82,883.691,102.658,164.894,700.429,90.8648,154.533,487.002,92.5467,194.673,268.48,26.0209,232.494,218.706,236.811,209.548,229.215
111,0,5.44869,447.576,1155.07,18.9174,182.662,1160.68,-192.801,345.641,1228.43,-180.665,242.895,1219.14,-106.599,503.296,874.891,-141.333,477.517,680.177,-241.618,477.47,533.222,-331.661,414.876,294.494,-404.726,368.141,274.777,-212.601,409.561,187.381,57.8124,121.655,883.064,99.6382,164.295,699.083,94.777,155.182,484.93,105.19,196.728,266.172,40.7248,235.187,214.752,251.669,211.325,231.562
112,0,7.38955,446.8,1155.86,21.7979,182.533,1161.52,-190.664,344.276,1228.43,-178.106,241.418,1219.2,-106.45,502.273,875.463,-142.245,477.315,680.534,-245.346,477.533,535.469,-340.41,415.074,298.752,-414.332,368.567,281.536,-225.976,409.01,187.193,57.5164,120.574,881.858,97.0885,163.75,697.473,98.0251,155.814,482.866,115.673,198.65,264.212,52.9486,237.653,211.589,264.084,212.973,233.475
113,0,9.36893,445.979,1156.26,24.743,182.371,1161.82,-188.489,342.813,1227.99,-175.497,239.814,1218.83,-105.432,501.39,875.614,-141.835,477.341,680.34,-247.944,477.801,537.391,-348.568,415.42,303.127,-423.246,369.076,288.619,-239.33,408.483,186.981,57.3241,119.642,880.156,95.1262,163.289,695.656,100.609,156.433,480.802,123.834,200.427,262.487,62.4537,239.87,209.097,273.838,214.46,234.631
114,0,11.3543,445.115,1156.23,27.7128,182.155,1161.58,-186.309,341.274,1227.09,-172.882,238.11,1218.03,-103.522,500.657,875.258,-140.082,477.601,679.554,-249.362,478.282,538.962,-356.046,415.926,307.627,-431.321,369.667,296.043,-252.638,407.985,186.742,57.3569,118.912,878.059,93.8355,162.932,693.685,102.531,157.037,478.727,129.566,202.052,260.895,69.0733,241.826,207.158,280.763,215.765,234.775
115,0,13.3125,444.21,1155.75,30.6658,181.861,1160.78,-184.158,339.685,1225.72,-170.309,236.336,1216.8,-100.71,500.079,874.322,-136.991,478.093,678.149,-249.568,478.977,540.172,-362.744,416.6,312.264,-438.403,370.337,303.83,-265.864,407.512,186.492,57.7213,118.421,875.674,93.2621,162.689,691.603,103.799,157.624,476.632,132.824,203.521,259.354,72.7262,243.517,205.669,284.755,216.878,233.754
116,0,15.2111,443.267,1154.8,33.5607,181.467,1159.45,-182.073,338.072,1223.88,-167.821,234.527,1215.16,-97.0059,499.658,872.757,-132.602,478.805,676.123,-248.547,479.884,541.019,-368.557,417.44,317.052,-444.348,371.082,311.999,-278.958,407.056,186.273,58.496,118.176,873.11,93.4103,162.552,689.442,104.423,158.185,474.511,133.629,204.836,257.806,73.4267,244.948,204.539,285.797,217.804,231.546
117,0,17.0191,442.292,1153.39,36.3572,180.953,1157.61,-180.089,336.463,1221.58,-165.465,232.72,1213.15,-92.4342,499.389,870.545,-126.978,479.716,673.495,-246.299,480.992,541.519,-373.381,418.438,322.008,-449.028,371.901,320.565,-291.837,406.609,186.159,59.7212,118.158,870.47,94.241,162.502,687.226,104.415,158.71,472.357,132.07,205.997,256.218,71.2875,246.126,203.694,283.971,218.558,228.261
118,0,18.7082,441.293,1151.51,39.0169,180.302,1155.31,-178.237,334.884,1218.85,-163.279,230.954,1210.79,-87.0388,499.263,867.705,-120.21,480.798,670.313,-242.843,482.284,541.697,-377.124,419.578,327.155,-452.343,372.788,329.53,-304.385,406.166,186.255,61.3899,118.318,867.84,95.6739,162.509,684.967,103.787,159.184,470.17,128.299,207.007,254.579,66.5163,247.064,203.079,279.466,219.164,224.122
119,0,20.2541,440.278,1149.19,41.5045,179.502,1152.59,-176.546,333.36,1215.71,-161.3,229.263,1208.12,-80.8842,499.268,864.299,-112.406,482.013,666.648,-238.215,483.738,541.595,-379.71,420.837,332.518,-454.231,373.734,338.884,-316.437,405.731,186.699,63.4436,118.581,865.286,97.5906,162.53,682.67,102.556,159.592,467.951,122.525,207.866,252.9,59.4039,247.774,202.649,272.57,219.647,219.438
120,0,21.6368,439.258,1146.48,43.7885,178.548,1149.53,-175.041,331.915,1212.22,-159.558,227.681,1205.21,-74.058,499.387,860.425,-103.69,483.316,662.595,-232.464,485.323,541.263,-381.088,422.184,338.12,-454.672,374.724,348.592,-327.779,405.321,187.644,65.7724,118.854,862.843,99.841,162.519,680.334,100.735,159.919,465.705,115.003,208.575,251.205,50.3048,248.27,202.376,263.652,220.032,214.553
121,0,22.8419,438.245,1143.43,45.8421,177.441,1146.19,-173.737,330.568,1208.44,-158.075,226.238,1202.11,-66.6704,499.6,856.216,-94.1928,484.66,658.27,-225.654,487.007,540.763,-381.234,423.58,343.977,-453.69,375.733,358.592,-338.152,404.972,189.247,68.2209,119.038,860.525,102.251,162.425,677.952,98.3389,160.148,463.44,106.015,209.132,249.528,39.6138,248.565,202.237,253.132,220.335,209.799
122,0,23.8607,437.251,1140.09,47.6437,176.188,1142.66,-172.646,329.336,1204.44,-156.865,224.957,1198.88,-58.8542,499.885,851.829,-84.0483,485.995,653.804,-217.86,488.749,540.162,-380.153,424.983,350.097,-451.353,376.727,368.794,-347.253,404.736,191.644,70.5985,119.037,858.315,104.634,162.201,675.518,95.3824,160.268,461.168,95.8587,209.535,247.906,27.7378,248.675,202.217,241.445,220.565,205.457
123,0,24.6906,436.287,1136.56,49.1773,174.803,1139.03,-171.771,328.231,1200.3,-155.935,223.854,1195.59,-50.7609,500.217,847.428,-73.3867,487.271,649.34,-209.164,490.505,539.531,-377.88,426.345,356.469,-447.764,377.664,379.076,-354.762,404.681,194.935,72.6943,118.768,856.18,106.797,161.805,673.027,91.8781,160.269,458.904,84.8294,209.784,246.373,15.0697,248.616,202.304,229.006,220.72,201.725
124,0,25.3346,435.362,1132.91,50.4328,173.307,1135.37,-171.108,327.261,1196.12,-155.282,222.939,1192.32,-42.5557,500.57,843.174,-62.3308,488.442,645.022,-199.658,492.229,538.942,-374.464,427.621,363.058,-443.054,378.495,389.289,-360.357,404.878,199.156,74.2956,118.175,854.076,108.558,161.207,670.48,87.8381,160.146,456.664,73.2031,209.882,244.958,1.9647,248.407,202.486,216.181,220.793,198.707
125,0,25.8013,434.483,1129.24,51.4059,171.723,1131.77,-170.647,326.43,1192,-154.896,222.214,1189.15,-34.4092,500.915,839.213,-50.9917,489.466,640.993,-189.437,493.871,538.461,-369.974,428.767,369.802,-437.366,379.173,399.26,-363.744,405.387,204.273,75.207,117.226,851.958,109.749,160.388,667.881,83.2739,159.9,454.467,61.2253,209.832,243.681,-11.2782,248.071,202.751,203.26,220.776,196.416
126,0,26.1038,433.654,1125.63,52.0984,170.079,1128.31,-170.372,325.739,1188.03,-154.762,221.674,1186.13,-26.4889,501.224,835.659,-39.4674,490.307,637.386,-178.598,495.384,538.152,-364.48,429.749,376.609,-430.849,379.658,408.803,-364.684,406.246,210.169,75.2685,115.926,849.79,110.228,159.349,665.243,78.1962,159.538,452.333,49.1008,209.646,242.554,-24.4271,247.633,203.088,190.451,220.663,194.79
127,0,26.259,432.877,1122.2,52.5175,168.406,1125.08,-170.263,325.183,1184.31,-154.856,221.305,1183.35,-18.9488,501.465,832.596,-27.8421,490.938,634.322,-167.241,496.719,538.067,-358.05,430.539,383.357,-423.641,379.927,417.723,-363.015,407.454,216.655,74.3718,114.308,847.553,109.882,158.103,662.59,72.6156,159.07,450.285,36.989,209.339,241.582,-37.3211,247.121,203.486,177.883,220.453,193.719
128,0,26.2865,432.147,1119.01,52.6757,166.732,1122.13,-170.297,324.757,1180.94,-155.153,221.09,1180.86,-11.9192,501.612,830.071,-16.1868,491.337,631.902,-155.466,497.831,538.249,-350.746,431.124,389.901,-415.865,379.977,425.829,-358.667,408.96,223.483,72.4704,112.434,845.254,108.637,156.684,659.95,66.543,158.514,448.344,25.0019,208.929,240.763,-49.8677,246.564,203.933,165.609,220.154,193.067
129,0,26.2072,431.46,1116.16,52.59,165.088,1119.52,-170.449,324.452,1177.98,-155.621,221.006,1178.72,-5.4986,501.636,828.102,-4.56189,491.491,630.208,-143.373,498.68,538.726,-342.619,431.5,396.074,-407.617,379.826,432.94,-351.668,410.666,230.363,69.5842,110.386,842.922,106.448,155.137,657.36,59.9903,157.891,446.536,13.2066,208.439,240.09,-62.0347,245.991,204.419,153.63,219.781,192.699
130,0,26.0427,430.808,1113.72,52.2814,163.498,1117.29,-170.695,324.256,1175.52,-156.229,221.027,1176.97,0.252955,501.515,826.682,6.9805,491.393,629.297,-131.06,499.232,539.516,-333.714,431.678,401.702,-398.967,379.514,438.892,-342.129,412.431,236.995,65.7974,108.259,840.613,103.308,153.517,654.863,52.9706,157.225,444.882,1.63048,207.897,239.555,-73.8383,245.428,204.937,141.904,219.354,192.494
131,0,25.8135,430.179,1111.74,51.774,161.984,1115.48,-171.009,324.157,1173.61,-156.945,221.125,1175.66,5.31706,501.235,825.794,18.3928,491.043,629.208,-118.625,499.463,540.621,-324.065,431.675,406.607,-389.962,379.098,443.54,-330.239,414.09,243.092,61.2491,106.155,838.4,99.238,151.888,652.504,45.4987,156.54,443.408,-9.73169,207.326,239.153,-85.3303,244.898,205.483,130.369,218.897,192.361
132,0,25.5389,429.564,1110.27,51.0942,160.566,1114.11,-171.372,324.14,1172.27,-157.737,221.274,1174.81,9.71646,500.786,825.412,29.6289,490.444,629.954,-106.164,499.354,542.027,-313.707,431.516,410.623,-380.619,378.641,446.763,-316.233,415.474,248.405,56.1183,104.171,836.367,94.2841,150.315,650.329,37.5917,155.862,442.135,-20.9094,206.752,238.88,-96.5838,244.415,206.061,118.957,218.433,192.238
133,0,25.2357,428.952,1109.35,50.2699,159.256,1113.19,-171.764,324.191,1171.55,-158.575,221.445,1174.43,13.511,500.17,825.515,40.6406,489.604,631.527,-93.7696,498.899,543.708,-302.673,431.225,413.601,-370.939,378.201,448.462,-300.373,416.439,252.739,50.6056,102.395,834.598,88.5116,148.86,648.383,29.2692,155.216,441.088,-31.948,206.197,238.735,-107.681,243.987,206.678,107.602,217.986,192.09
134,0,24.9184,428.334,1108.98,49.3299,158.061,1112.71,-172.17,324.294,1171.43,-159.432,221.615,1174.53,16.7901,499.397,826.087,51.3754,488.535,633.9,-81.5337,498.101,545.624,-291.003,430.827,415.419,-360.905,377.824,448.564,-282.925,416.88,255.964,44.9125,100.899,833.169,81.9986,147.578,646.707,20.5532,154.622,440.286,-42.9004,205.675,238.724,-118.704,243.614,207.346,96.2459,217.573,191.906
135,0,24.5984,427.705,1109.18,48.3027,156.986,1112.67,-172.578,324.433,1171.92,-160.282,221.763,1175.09,19.6633,498.487,827.123,61.7746,487.251,637.023,-69.5419,496.972,547.72,-278.739,430.339,415.985,-350.484,377.532,447.014,-264.139,416.753,258.018,39.2219,99.7348,832.137,74.831,146.515,645.336,11.4685,154.097,439.749,-53.8201,205.198,238.856,-129.726,243.286,208.088,84.8466,217.206,191.688
136,0,24.285,427.061,1109.92,47.2166,156.031,1113.04,-172.979,324.591,1172.98,-161.104,221.871,1176.11,22.249,497.47,828.622,71.7723,485.769,640.831,-57.8746,495.534,549.93,-265.926,429.771,415.24,-339.635,377.32,443.779,-244.237,416.076,258.903,33.682,98.9354,831.538,67.0969,145.702,644.3,2.04245,153.653,439.493,-64.7562,204.77,239.146,-140.804,242.991,208.928,73.3732,216.893,191.447
137,0,23.9852,426.404,1111.18,46.0983,155.192,1113.8,-173.368,324.753,1174.58,-161.879,221.927,1177.56,24.6637,496.378,830.587,81.2956,484.107,645.239,-46.6053,493.816,552.179,-252.609,429.128,413.158,-328.304,377.155,438.852,-223.408,414.931,258.68,28.3944,98.5111,831.381,58.8832,145.156,643.62,-7.69511,153.297,439.533,-75.749,204.39,239.611,-151.983,242.708,209.897,61.8058,216.634,191.197
138,0,23.7047,425.738,1112.93,44.9732,154.464,1114.91,-173.739,324.903,1176.67,-162.591,221.924,1179.4,27.0124,495.25,833.021,90.2649,482.287,650.147,-35.7984,491.854,554.381,-238.824,428.402,409.746,-316.428,376.981,432.244,-201.799,413.451,257.453,23.4098,98.4523,831.654,50.2723,144.878,643.308,-17.712,153.03,439.878,-86.8283,204.051,240.269,-163.288,242.417,211.027,50.1326,216.425,190.95
139,0,23.4487,425.073,1115.14,43.8649,153.839,1116.34,-174.088,325.027,1179.19,-163.226,221.858,1181.59,29.3807,494.125,835.919,98.5958,480.334,655.443,-25.5086,489.689,556.448,-224.597,427.583,405.043,-303.935,376.725,423.994,-179.524,411.799,255.362,18.7283,98.7318,832.319,41.3403,144.856,643.37,-27.9742,152.848,440.535,-98.0123,203.743,241.14,-174.73,242.099,212.353,38.3473,216.261,190.714
140,0,23.2227,424.419,1117.74,42.795,153.311,1118.06,-174.412,325.112,1182.08,-163.774,221.731,1184.1,31.8303,493.038,839.265,106.201,478.274,661.003,-15.7794,487.364,558.289,-209.935,426.657,399.114,-290.742,376.308,414.17,-156.658,410.151,252.567,14.307,99.308,833.327,32.1564,145.063,643.8,-38.4455,152.742,441.504,-109.308,203.453,242.243,-186.307,241.737,213.908,26.4457,216.13,190.493
141,0,23.0329,423.791,1120.7,41.7829,152.873,1120.01,-174.706,325.151,1185.27,-164.225,221.547,1186.88,34.3965,492.018,843.031,112.992,476.136,666.695,-6.64245,484.924,559.814,-194.823,425.611,392.053,-276.758,375.655,402.87,-133.253,408.669,249.239,10.0715,100.129,834.621,22.7826,145.463,644.59,-49.0885,152.698,442.782,-120.713,203.166,243.591,-198.005,241.318,215.722,14.4248,216.022,190.288
142,0,22.8878,423.204,1123.95,40.8461,152.518,1122.16,-174.962,325.137,1188.69,-164.571,221.317,1189.87,37.0891,491.088,847.172,118.884,473.953,672.385,1.88283,482.414,560.942,-179.228,424.432,383.979,-261.885,374.708,390.229,-109.335,407.483,245.55,5.92917,101.135,836.139,13.2746,146.013,645.721,-59.8641,152.702,444.36,-132.216,202.867,245.196,-209.803,240.835,217.82,2.2812,215.927,190.097
143,0,22.7979,422.672,1127.44,39.9998,152.242,1124.46,-175.173,325.069,1192.28,-164.804,221.052,1193.02,39.8939,490.258,851.629,123.799,471.756,677.938,9.78907,479.877,561.604,-163.094,423.114,375.035,-246.025,373.43,376.417,-84.9187,406.673,241.669,1.78469,102.267,837.826,3.68329,146.663,647.168,-70.7319,152.734,446.222,-143.802,202.543,247.063,-221.678,240.285,220.223,-9.98844,215.832,189.917
144,0,22.7762,422.209,1131.1,39.2576,152.04,1126.88,-175.325,324.95,1195.96,-164.919,220.769,1196.29,42.7767,489.531,856.327,127.667,469.581,683.226,17.0806,477.351,561.744,-146.355,421.658,365.389,-229.081,371.814,361.644,-60.0127,406.258,237.758,-2.44742,103.463,839.634,-5.9433,147.365,648.901,-81.6501,152.777,448.346,-155.451,202.182,249.192,-233.603,239.671,222.942,-22.3872,215.73,189.744
145,0,22.8384,421.828,1134.88,38.6309,151.911,1129.37,-175.405,324.791,1199.65,-164.91,220.484,1199.61,45.6866,488.899,861.18,130.435,467.461,688.126,23.7725,474.875,561.325,-128.94,420.073,355.232,-210.971,369.881,346.159,-34.6274,406.197,233.973,-6.83195,104.67,841.524,-15.558,148.07,650.885,-92.5755,152.813,450.705,-167.14,201.776,251.576,-245.552,238.997,225.981,-34.9168,215.611,189.577
146,0,23.0022,421.535,1138.72,38.1293,151.852,1131.89,-175.398,324.604,1203.31,-164.772,220.216,1202.95,48.56,488.349,866.09,132.068,465.431,692.531,29.8895,472.478,560.332,-110.789,418.374,344.775,-191.638,367.679,330.24,-8.78338,406.391,230.469,-11.4062,105.838,843.47,-25.1121,148.734,653.078,-103.463,152.824,453.267,-178.847,201.318,254.203,-257.499,238.27,229.336,-47.5769,215.469,189.411
147,0,23.2871,421.336,1142.55,37.7605,151.863,1134.4,-175.285,324.41,1206.86,-164.503,219.987,1206.24,51.3238,487.867,870.949,132.558,463.523,696.35,35.4648,470.188,558.772,-91.8626,416.582,334.246,-171.062,365.279,314.193,17.4813,406.701,227.398,-16.177,106.93,845.451,-34.5532,149.323,655.432,-114.267,152.797,455.992,-190.551,200.805,257.053,-269.424,237.496,232.995,-60.3641,215.298,189.249
148,0,23.7127,421.231,1146.31,37.5303,151.943,1136.87,-175.05,324.231,1210.24,-164.099,219.815,1209.44,53.8983,487.44,875.643,131.923,461.764,699.511,40.5378,468.026,556.67,-72.1633,414.724,323.877,-149.277,362.764,298.336,44.1027,406.968,224.913,-21.1209,107.92,847.453,-43.8231,149.807,657.896,-124.939,152.72,458.838,-202.231,200.237,260.104,-281.309,236.683,236.941,-73.2717,215.094,189.09
149,0,24.2985,421.217,1149.93,37.4425,152.092,1139.24,-174.677,324.094,1213.39,-163.561,219.722,1212.48,56.1993,487.065,880.052,130.217,460.179,701.964,45.1528,466.01,554.074,-51.7446,412.828,313.901,-126.381,360.221,282.988,70.9813,407.031,223.164,-26.1877,108.789,849.465,-52.8567,150.168,660.414,-135.428,152.584,461.758,-213.865,199.615,263.329,-293.136,235.835,241.15,-86.29,214.856,188.937
150,0,25.0618,421.287,1153.36,37.4989,152.307,1141.49,-174.15,324.029,1216.27,-162.891,219.726,1215.34,58.1403,486.747,884.052,127.531,458.783,703.684,49.357,464.149,551.048,-30.726,410.926,304.533,-102.555,357.737,268.45,97.9726,406.755,222.288,-31.3048,109.534,851.47,-61.5806,150.396,662.922,-145.681,152.384,464.702,-225.436,198.946,266.696,-304.893,234.956,245.595,-99.4066,214.582,188.793
151,0,26.0168,421.431,1156.53,37.6986,152.589,1143.56,-173.46,324.066,1218.83,-162.092,219.844,1217.94,59.6361,486.504,887.517,123.992,457.587,704.669,53.1981,462.452,547.669,-9.30112,409.046,295.956,-78.0674,355.383,254.988,124.877,406.047,222.39,-36.3833,110.158,853.447,-69.9133,150.492,665.355,-155.643,152.118,467.62,-236.922,198.235,270.174,-316.564,234.053,250.247,-112.608,214.274,188.658
152,0,27.1733,421.638,1159.37,38.0386,152.933,1145.42,-172.6,324.232,1221.02,-161.171,220.092,1220.25,60.6068,486.362,890.328,119.766,456.59,704.944,56.7224,460.92,544.021,12.2594,407.213,288.313,-53.2772,353.218,242.82,151.431,404.868,223.522,-41.3228,110.676,855.363,-77.766,150.461,667.642,-165.257,151.787,470.462,-248.3,197.491,273.733,-328.135,233.13,255.079,-125.88,213.933,188.533
153,0,28.5354,421.895,1161.84,38.5131,153.338,1147.04,-171.57,324.554,1222.81,-160.14,220.481,1222.21,60.9844,486.354,892.379,115.051,455.786,704.554,59.9728,459.551,540.193,33.6111,405.451,281.689,-28.6324,351.279,232.102,177.304,403.24,225.66,-46.017,111.106,857.177,-85.0434,150.317,669.713,-174.463,151.393,473.179,-259.545,196.722,277.342,-339.584,232.193,260.068,-139.21,213.563,188.415
154,0,30.1006,422.189,1163.89,39.1133,153.8,1148.36,-170.375,325.053,1224.16,-159.012,221.02,1223.78,60.7215,486.509,893.581,110.073,455.157,703.568,62.9865,458.341,536.274,54.3466,403.775,276.106,-4.65494,349.586,222.915,202.099,401.233,228.677,-50.3572,111.474,858.832,-91.6467,150.078,671.492,-183.199,150.94,475.724,-270.626,195.938,280.976,-350.883,231.251,265.195,-152.588,213.169,188.299
155,0,31.8592,422.51,1165.46,39.8279,154.314,1149.36,-169.027,325.744,1225.06,-157.805,221.713,1224.92,59.8017,486.848,893.878,105.074,454.678,702.069,65.7939,457.283,532.348,74.0135,402.197,271.525,18.0804,348.138,215.272,225.367,398.957,232.337,-54.2361,111.807,860.26,-97.4759,149.763,672.908,-191.402,150.434,478.059,-281.503,195.146,284.614,-361.994,230.316,270.452,-166.01,212.759,188.175
156,0,33.7943,422.849,1166.53,40.6423,154.875,1150.01,-167.546,326.635,1225.48,-156.537,222.559,1225.6,58.2503,487.373,893.252,100.303,454.32,700.155,68.4166,456.366,528.49,92.1387,400.721,267.847,38.9772,346.923,209.113,246.621,396.54,236.294,-57.5502,112.133,861.386,-102.434,149.393,673.891,-199.006,149.88,480.148,-292.13,194.353,288.241,-372.862,229.399,275.837,-179.472,212.339,188.031
157,0,35.8816,423.2,1167.06,41.5394,155.479,1150.27,-165.957,327.724,1225.42,-155.233,223.554,1225.78,56.144,488.062,891.735,95.9992,454.05,697.93,70.8665,455.581,524.765,108.258,399.343,264.928,57.4546,345.914,204.321,265.37,394.108,240.118,-60.2026,112.477,862.127,-106.429,148.986,674.378,-205.948,149.282,481.966,-302.452,193.562,291.85,-383.423,228.511,281.361,-192.98,211.919,187.853
158,0,38.09,423.56,1167.06,42.4996,156.119,1150.12,-164.292,329.002,1224.88,-153.918,224.687,1225.43,53.6164,488.871,889.409,92.3775,453.832,695.5,73.1454,454.917,521.226,121.947,398.055,262.594,72.9885,345.077,200.735,281.155,391.766,243.336,-62.1056,112.862,862.403,-109.381,148.557,674.312,-212.163,148.646,483.496,-312.403,192.773,295.443,-393.59,227.662,287.047,-206.541,211.506,187.632
159,0,40.3825,423.932,1166.52,43.5013,156.791,1149.54,-162.587,330.449,1223.86,-152.617,225.944,1224.56,50.8582,489.735,886.413,89.6157,453.638,692.967,75.2451,454.364,517.911,132.855,396.844,260.664,85.1523,344.375,198.168,293.59,389.587,245.49,-63.1831,113.306,862.138,-111.222,148.12,673.652,-217.588,147.974,484.73,-321.91,191.983,299.031,-403.263,226.86,292.925,-220.162,211.11,187.362
160,0,42.7176,424.319,1165.45,44.5213,157.488,1148.53,-160.881,332.036,1222.38,-151.359,227.306,1223.14,48.1083,490.58,882.929,87.8403,453.444,690.422,77.1472,453.914,514.848,140.729,395.693,258.965,93.6525,343.77,196.422,302.4,387.607,246.207,-63.3736,113.817,861.271,-111.904,147.681,672.368,-222.163,147.269,485.672,-330.89,191.186,302.635,-412.327,226.106,299.036,-233.85,210.74,187.051
161,0,45.0504,424.729,1163.89,45.5354,158.207,1147.09,-159.216,333.728,1220.48,-150.169,228.75,1221.2,45.6361,491.33,879.177,87.1169,453.235,687.94,78.8246,453.563,512.048,145.436,394.585,257.357,98.3553,343.229,195.31,307.457,385.829,245.254,-62.6337,114.399,859.763,-111.395,147.244,670.451,-225.834,146.531,486.335,-339.253,190.373,306.284,-420.656,225.395,305.425,-247.601,210.405,186.724
162,0,47.3345,425.171,1161.89,46.5195,158.941,1145.22,-157.633,335.482,1218.19,-149.073,230.251,1218.75,43.7154,491.926,875.392,87.4439,453.009,685.578,80.2422,453.305,509.516,146.977,393.508,255.739,99.2995,342.723,194.662,308.799,384.232,242.586,-60.9408,115.046,857.598,-109.689,146.808,667.91,-228.55,145.76,486.743,-346.908,189.533,310.013,-428.116,224.72,312.137,-261.394,210.111,186.424
163,0,49.5235,425.656,1159.49,47.4501,159.687,1142.94,-156.172,337.253,1215.55,-148.093,231.781,1215.82,42.5919,492.333,871.801,88.7512,452.776,683.371,81.3587,453.14,507.24,145.483,392.453,254.057,96.693,342.232,194.335,306.634,382.785,238.356,-58.2964,115.744,854.794,-106.8,146.371,664.777,-230.271,144.957,486.929,-353.759,188.654,313.864,-434.575,224.065,319.214,-275.182,209.865,186.22
164,0,51.5727,426.194,1156.77,48.305,160.438,1140.3,-154.867,338.992,1212.62,-147.25,233.311,1212.48,42.449,492.553,868.604,90.9043,452.559,681.332,82.1277,453.069,505.206,141.208,391.421,252.303,90.8939,341.748,194.219,301.327,381.458,232.896,-54.7284,116.472,851.401,-102.765,145.926,661.104,-230.962,144.121,486.932,-359.716,187.729,317.879,-439.91,223.417,326.685,-288.885,209.666,186.203
165,0,53.4408,426.796,1153.79,49.0646,161.192,1137.32,-153.75,340.653,1209.46,-146.557,234.814,1208.76,43.3759,492.624,865.944,93.7127,452.389,679.453,82.4996,453.096,503.387,134.504,390.421,250.507,82.3771,341.269,194.232,293.365,380.235,226.671,-50.2933,117.202,847.5,-97.6394,145.468,656.966,-230.6,143.254,486.8,-364.693,186.753,322.099,-444.012,222.761,334.565,-302.374,209.508,186.479
166,0,55.0912,427.469,1150.64,49.7116,161.944,1134.06,-152.845,342.191,1206.14,-146.028,236.261,1204.75,45.346,492.613,863.897,96.9428,452.306,677.707,82.423,453.223,501.755,125.79,389.469,248.722,71.6904,340.803,194.317,283.307,379.113,220.198,-45.076,117.904,843.203,-91.4996,144.991,652.458,-229.173,142.357,486.583,-368.613,185.725,326.557,-446.8,222.088,342.843,-315.475,209.374,187.166
167,0,56.4933,428.218,1147.4,50.2324,162.691,1130.58,-152.167,343.57,1202.73,-145.667,237.629,1200.52,48.2073,492.609,862.459,100.334,452.349,676.055,81.8465,453.453,500.278,115.521,388.587,247.016,59.4065,340.364,194.44,271.733,378.105,213.977,-39.1898,118.545,838.642,-84.4343,144.49,647.693,-226.683,141.435,486.335,-371.411,184.653,331.276,-448.219,221.398,351.486,-327.955,209.238,188.376
168,0,57.623,429.044,1144.15,50.6169,163.43,1126.96,-151.727,344.76,1199.29,-145.476,238.895,1196.16,51.6905,492.709,861.551,103.614,452.556,674.452,80.7204,453.786,498.922,104.149,387.802,245.452,46.0765,339.967,194.579,259.187,377.233,208.419,-32.7729,119.096,833.964,-76.5432,143.964,642.795,-223.143,140.495,486.108,-373.038,183.55,336.264,-448.252,220.697,360.424,-339.534,209.061,190.207
169,0,58.4637,429.945,1140.96,50.8585,164.159,1123.27,-151.523,345.741,1195.9,-145.453,240.042,1191.77,55.4324,492.998,861.031,106.521,452.958,672.847,78.9982,454.22,497.654,92.0905,387.134,244.079,32.1907,339.626,194.723,246.135,376.516,203.797,-25.9838,119.53,829.318,-67.9317,143.415,637.898,-218.58,139.546,485.953,-373.457,182.438,341.508,-446.917,220.001,369.561,-349.889,208.796,192.722
170,0,59.0061,430.914,1137.91,50.9544,164.877,1119.59,-151.55,346.503,1192.62,-145.59,241.056,1187.42,59.0145,493.54,860.719,108.815,453.571,671.198,76.639,454.747,496.444,79.7042,386.602,242.928,18.1511,339.35,194.868,232.941,375.969,200.235,-18.9947,119.829,824.849,-58.7073,142.849,633.141,-213.033,138.6,485.916,-372.652,181.342,346.973,-444.267,219.334,378.768,-358.669,208.389,195.942
171,0,59.2483,431.942,1135.06,50.9051,165.582,1115.99,-151.795,347.048,1189.53,-145.878,241.93,1183.22,62.0095,494.367,860.418,110.291,454.401,669.472,73.6083,455.357,495.27,67.2713,386.213,242.007,4.25621,339.142,195.012,219.855,375.589,197.712,-11.9825,119.986,820.686,-48.9751,142.276,628.658,-206.554,137.672,486.036,-370.621,180.291,352.602,-440.388,218.723,387.889,-365.518,207.791,199.833
172,0,59.1954,433.014,1132.46,50.7137,166.274,1112.57,-152.239,347.385,1186.69,-146.305,242.66,1179.26,64.0306,495.475,859.954,110.793,455.432,667.649,69.8809,456.033,494.113,54.9886,385.965,241.306,-9.30053,338.997,195.156,207.019,375.363,196.099,-5.11884,120.002,816.937,-38.8356,141.71,624.58,-199.208,136.78,486.344,-367.376,179.313,358.312,-435.39,218.196,396.746,-370.096,206.963,204.302
173,0,58.8589,434.116,1130.15,50.3858,166.954,1109.4,-152.86,347.536,1184.13,-146.856,243.247,1175.61,64.7751,496.827,859.191,110.213,456.637,665.729,65.4412,456.756,492.965,42.9691,385.846,240.795,-22.4215,338.904,195.301,194.49,375.262,195.198,1.44037,119.891,813.683,-28.3817,141.168,621.026,-191.066,135.942,486.862,-362.948,178.435,363.998,-429.398,217.773,405.145,-372.109,205.887,209.205
174,0,58.2556,435.231,1128.17,49.9286,167.622,1106.54,-153.633,347.526,1181.92,-147.518,243.697,1172.35,64.0575,498.356,858.058,108.497,457.971,663.728,60.2848,457.503,491.826,31.2494,385.833,240.437,-35.0882,338.847,195.454,182.257,375.25,194.785,7.56531,119.674,810.981,-17.6981,140.67,618.098,-182.21,135.177,487.601,-357.375,177.677,369.537,-422.543,217.466,412.888,-371.326,204.574,214.35
175,0,57.407,436.34,1126.53,49.3503,168.277,1104.06,-154.533,347.385,1180.09,-148.277,244.018,1169.53,61.8253,499.977,856.552,105.639,459.38,661.678,54.4186,458.249,490.705,19.8022,385.9,240.191,-47.3403,338.808,195.62,170.272,375.289,194.654,13.1608,119.379,808.861,-6.86132,140.237,615.883,-172.725,134.504,488.561,-350.708,177.054,374.79,-414.955,217.273,419.774,-367.605,203.066,219.521
176,0,56.3381,437.424,1125.25,48.6598,168.918,1102.01,-155.536,347.148,1178.66,-149.12,244.224,1167.21,58.1577,501.596,854.74,101.676,460.804,659.626,47.8605,458.971,489.62,8.55177,386.017,240.019,-59.2539,338.774,195.809,158.466,375.343,194.634,18.1726,119.04,807.335,4.05938,139.891,614.446,-162.703,133.941,489.73,-343.002,176.571,379.611,-406.749,217.179,425.615,-360.901,201.436,224.49
177,0,55.0762,438.468,1124.31,47.8662,169.543,1100.43,-156.618,346.847,1177.65,-150.035,244.328,1165.42,53.248,503.12,852.742,96.6795,462.18,657.628,40.6385,459.645,488.595,-2.60812,386.156,239.886,-70.9219,338.731,196.035,146.771,375.379,194.61,22.5899,118.686,806.401,15.0002,139.653,613.832,-152.232,133.501,491.088,-334.317,176.224,383.848,-398.022,217.157,430.236,-351.263,199.78,229.044
178,0,53.6501,439.453,1123.73,46.9787,170.149,1099.36,-157.76,346.513,1177.07,-151.012,244.347,1164.18,47.3711,504.469,850.711,90.7449,463.447,655.744,32.7891,460.251,487.66,-13.797,386.294,239.768,-82.4383,338.675,196.311,135.122,375.377,194.516,26.4446,118.346,806.046,25.9005,139.539,614.064,-141.402,133.197,492.602,-324.714,176.001,387.356,-388.844,217.171,433.486,-338.838,198.2,233.002
179,0,52.089,440.365,1123.47,46.0064,170.728,1098.8,-158.945,346.175,1176.93,-152.044,244.297,1163.51,40.8448,505.575,848.812,83.983,464.555,654.034,24.3554,460.774,486.846,-25.1309,386.415,239.652,-93.887,338.609,196.655,123.472,375.325,194.332,29.8066,118.041,806.255,36.7001,139.564,615.142,-130.299,133.036,494.23,-314.252,175.884,390.001,-379.256,217.18,435.241,-323.844,196.794,236.233
180,0,50.4217,441.191,1123.52,44.9586,171.275,1098.76,-160.159,345.853,1177.21,-153.122,244.194,1163.4,33.9886,506.396,847.193,76.5099,465.462,652.55,15.3854,461.202,486.185,-36.7068,386.512,239.538,-105.335,338.543,197.084,111.783,375.221,194.068,32.7758,117.784,807.015,47.3369,139.737,617.047,-119.001,133.017,495.925,-302.983,175.851,391.667,-369.27,217.15,435.405,-306.555,195.634,238.661
181,0,48.676,441.921,1123.86,43.8449,171.78,1099.24,-161.392,345.564,1177.91,-154.242,244.054,1163.84,27.0867,506.909,845.973,68.4393,466.139,651.337,5.92947,461.528,485.708,-48.5906,386.585,239.438,-116.832,338.492,197.617,100.031,375.071,193.751,35.4715,117.579,808.312,57.7448,140.059,619.739,-107.581,133.139,497.633,-290.953,175.878,392.258,-358.866,217.054,433.919,-287.277,194.756,240.269
182,0,46.8777,442.546,1124.45,42.676,172.234,1100.22,-162.635,345.319,1178.99,-155.396,243.891,1164.79,20.3603,507.112,845.225,59.8761,466.573,650.428,-3.96081,461.75,485.443,-60.8079,386.64,239.376,-128.409,338.477,198.274,88.2005,374.887,193.41,38.0206,117.425,810.139,67.8523,140.527,623.16,-96.103,133.392,499.297,-278.197,175.944,391.709,-347.998,216.878,430.755,-266.319,194.153,241.094
183,0,45.0506,443.057,1125.28,41.4634,172.625,1101.67,-163.883,345.121,1180.45,-156.58,243.716,1166.22,13.9511,507.02,844.974,50.9127,466.763,649.841,-14.2345,461.871,485.41,-73.3402,386.69,239.389,-140.08,338.517,199.074,76.2837,374.685,193.071,40.5453,117.31,812.487,77.5819,141.13,627.235,-84.6217,133.762,500.857,-264.738,176.03,389.985,-336.598,216.625,425.922,-243.98,193.775,241.213
184,0,43.216,443.452,1126.31,40.2207,172.945,1103.56,-165.129,344.969,1182.23,-157.786,243.538,1168.1,7.91832,506.664,845.2,41.6261,466.721,649.584,-24.8421,461.895,485.626,-86.1252,386.749,239.524,-151.852,338.631,200.035,64.2769,374.481,192.751,43.1524,117.222,815.348,86.8508,141.848,631.878,-73.1829,134.23,502.259,-250.59,176.122,387.082,-324.577,216.316,419.463,-220.526,193.541,240.726
185,0,41.3928,443.727,1127.52,38.9632,173.183,1105.86,-166.368,344.856,1184.31,-159.004,243.363,1170.36,2.24613,506.082,845.848,32.0783,466.469,649.651,-35.7362,461.83,486.102,-99.0649,386.828,239.834,-163.722,338.83,201.175,52.1799,374.292,192.454,45.9233,117.145,818.71,95.5717,142.659,636.987,-61.8239,134.776,503.45,-235.753,176.215,383.033,-311.838,215.985,411.46,-196.188,193.347,239.747
186,0,39.5973,443.88,1128.87,37.7085,173.334,1108.51,-167.595,344.772,1186.64,-160.224,243.193,1172.96,-3.13885,505.314,846.841,22.3174,466.038,650.029,-46.8716,461.684,486.842,-112.038,386.936,240.374,-175.682,339.118,202.512,39.9953,374.129,192.177,48.9079,117.067,822.551,103.656,143.531,642.454,-50.5744,135.374,504.384,-220.218,176.308,377.9,-298.277,215.674,402.025,-171.154,193.092,238.383
187,0,37.8436,443.915,1130.35,36.4766,173.392,1111.49,-168.801,344.704,1189.19,-161.431,243.027,1175.84,-8.34558,504.403,848.093,12.3798,465.46,650.697,-58.2049,461.465,487.844,-124.916,387.075,241.194,-187.723,339.491,204.061,27.7273,373.998,191.911,52.1208,116.976,826.84,111.014,144.433,648.162,-39.4579,136,505.026,-203.974,176.406,371.781,-283.792,215.433,391.307,-145.572,192.691,236.725
188,0,36.1441,443.834,1131.92,35.2896,173.358,1114.73,-169.979,344.638,1191.91,-162.611,242.861,1178.95,-13.4948,503.385,849.519,2.29435,464.769,651.631,-69.6942,461.179,489.103,-137.583,387.242,242.335,-199.834,339.934,205.838,15.3816,373.902,191.644,55.5404,116.861,831.532,117.564,145.327,653.995,-28.4934,136.628,505.349,-187.005,176.52,364.8,-268.295,215.307,379.484,-119.557,192.089,234.847
189,0,34.5095,443.645,1133.58,34.1713,173.234,1118.19,-171.116,344.556,1194.76,-163.742,242.688,1182.21,-18.6972,502.287,851.048,-7.9141,464,652.804,-81.2978,460.834,490.608,-149.953,387.427,243.822,-212.005,340.424,207.856,2.96377,373.837,191.367,59.1123,116.719,836.565,123.23,146.179,659.833,-17.6976,137.234,505.34,-169.301,176.661,357.107,-251.716,215.338,366.764,-93.1989,191.27,232.801
190,0,32.9498,443.355,1135.28,33.1468,173.027,1121.81,-172.2,344.441,1197.69,-164.806,242.497,1185.57,-24.0369,501.133,852.622,-18.2202,463.181,654.188,-92.9733,460.431,492.346,-161.982,387.613,245.66,-224.224,340.934,210.127,-9.52177,373.795,191.071,62.7533,116.545,841.86,127.951,146.952,665.559,-7.08663,137.798,504.996,-150.864,176.844,348.873,-234.011,215.553,353.377,-66.5736,190.26,230.633
191,0,31.4742,442.975,1137.02,32.2419,172.748,1125.55,-173.216,344.278,1200.66,-165.779,242.276,1188.98,-29.5606,499.935,854.203,-28.5937,462.336,655.756,-104.676,459.974,494.301,-173.672,387.781,247.836,-236.477,341.428,212.658,-22.0731,373.761,190.753,66.3589,116.334,847.324,131.681,147.617,671.064,3.32178,138.301,504.33,-131.715,177.079,340.285,-215.173,215.967,339.572,-39.7505,189.117,228.383
192,0,30.0919,442.517,1138.77,31.482,172.411,1129.35,-174.148,344.049,1203.62,-166.638,242.01,1192.37,-35.274,498.701,855.766,-38.996,461.481,657.481,-116.359,459.464,496.454,-185.07,387.911,250.318,-248.749,341.876,215.456,-34.6918,373.722,190.414,69.8111,116.08,852.848,134.394,148.147,676.247,13.5067,138.73,503.362,-111.899,177.376,331.537,-195.235,216.579,325.606,-12.8036,187.919,226.103
193,0,28.8124,441.996,1140.52,30.8913,172.032,1133.15,-174.98,343.739,1206.53,-167.361,241.684,1195.7,-41.1441,497.433,857.301,-49.3767,460.629,659.334,-127.971,458.902,498.784,-196.254,387.984,253.063,-261.025,342.247,218.521,-47.3838,373.662,190.061,72.9872,115.775,858.311,136.088,148.523,681.018,23.4424,139.077,502.124,-91.4924,177.739,322.826,-174.277,217.377,311.74,14.1806,186.753,223.866
194,0,27.6452,441.426,1142.24,30.4919,171.628,1136.91,-175.693,343.334,1209.35,-167.924,241.28,1198.92,-47.1066,496.133,858.804,-59.6713,459.782,661.289,-139.453,458.287,501.267,-207.321,387.984,256.024,-273.287,342.519,221.852,-60.1588,373.565,189.7,75.7684,115.403,863.585,136.787,148.732,685.301,33.098,139.339,500.655,-70.6059,178.17,314.34,-152.426,218.334,298.223,41.0963,185.701,221.77
195,0,26.6006,440.82,1143.92,30.3028,171.217,1140.57,-176.273,342.822,1212.06,-168.309,240.783,1201.98,-53.0751,494.802,860.277,-69.8004,458.94,663.313,-150.744,457.624,503.877,-218.364,387.902,259.153,-285.52,342.677,225.445,-73.0292,373.419,189.342,78.0485,114.944,868.54,136.54,148.772,689.036,42.4365,139.518,498.998,-49.389,178.664,306.253,-129.864,219.416,285.285,67.8137,184.824,219.934
196,0,25.6888,440.193,1145.53,30.3389,170.814,1144.07,-176.705,342.192,1214.6,-168.497,240.178,1204.83,-58.9519,493.443,861.718,-79.6694,458.099,665.375,-161.775,456.916,506.587,-229.462,387.738,262.409,-297.708,342.718,229.294,-86.0079,373.215,188.998,79.7407,114.376,873.048,135.423,148.648,692.181,51.4151,139.62,497.2,-28.0292,179.214,298.715,-106.82,220.582,273.13,94.1756,184.163,218.496
197,0,24.9202,439.555,1147.06,30.6108,170.434,1147.37,-176.975,341.435,1216.95,-168.477,239.45,1207.45,-64.6368,492.06,863.125,-89.1703,457.253,667.435,-172.47,456.171,509.363,-240.666,387.496,265.761,-309.839,342.653,233.39,-99.1059,372.948,188.676,80.7849,113.676,876.993,133.537,148.375,694.711,59.9863,139.659,495.307,-6.75028,179.808,291.846,-83.5713,221.791,261.922,119.997,183.736,217.59
198,0,24.3046,438.917,1148.48,31.1236,170.087,1150.42,-177.074,340.546,1219.07,-168.24,238.59,1209.8,-70.0348,490.662,864.49,-98.1838,456.395,669.451,-182.749,455.399,512.171,-251.991,387.191,269.188,-321.901,342.502,237.727,-112.33,372.619,188.385,81.1526,112.823,880.272,131.006,147.975,696.622,68.0987,139.648,493.359,14.1917,180.436,285.729,-60.4378,223.004,251.78,145.064,183.542,217.329
199,0,23.8507,438.282,1149.78,31.8773,169.779,1153.16,-176.996,339.52,1220.95,-167.784,237.588,1211.85,-75.0591,489.259,865.799,-106.583,455.522,671.375,-192.528,454.616,514.974,-263.414,386.843,272.675,-333.879,342.293,242.298,-125.679,372.231,188.129,80.8508,111.806,882.807,127.973,147.476,697.926,75.6986,139.606,491.394,34.5152,181.086,280.407,-37.7732,224.184,242.779,169.141,183.57,217.781
200,0,23.5655,437.655,1150.92,32.8658,169.51,1155.57,-176.739,338.36,1222.55,-167.111,236.44,1213.58,-79.6326,487.864,867.03,-114.239,454.635,673.152,-201.718,453.838,517.73,-274.879,386.475,276.216,-345.759,342.064,247.099,-139.146,371.79,187.909,79.9239,110.626,884.548,124.595,146.911,698.651,82.7321,139.552,489.442,53.9215,181.749,275.882,-15.9559,225.302,234.942,191.968,183.805,218.948
201,0,23.4535,437.031,1151.89,34.0778,169.276,1157.61,-176.305,337.068,1223.84,-166.231,235.148,1214.96,-83.6867,486.489,868.153,-121.022,453.739,674.723,-210.229,453.088,520.398,-286.3,386.117,279.806,-357.516,341.856,252.129,-152.715,371.307,187.723,78.454,109.301,885.476,121.036,146.318,698.842,89.1471,139.505,487.522,72.1049,182.417,272.117,4.62219,226.338,228.249,213.271,184.237,220.752
202,0,23.5162,436.407,1152.67,35.4965,169.068,1159.24,-175.703,335.653,1224.81,-165.158,233.715,1215.99,-87.1583,485.147,869.129,-126.812,452.846,676.028,-217.97,452.388,522.934,-297.569,385.797,283.44,-369.113,341.709,257.389,-166.363,370.79,187.561,76.558,107.866,885.606,117.462,145.731,698.552,94.8946,139.483,485.648,88.7646,183.087,269.04,23.5704,227.278,222.638,232.766,184.862,223.031
203,0,23.7511,435.774,1153.22,37.1004,168.872,1160.44,-174.945,334.126,1225.43,-163.914,232.15,1216.65,-89.9873,483.851,869.911,-131.498,451.976,677.003,-224.854,451.765,525.294,-308.561,385.544,287.114,-380.493,341.662,262.887,-180.063,370.248,187.411,74.3834,106.376,884.99,114.035,145.187,697.844,99.9316,139.5,483.824,103.616,183.761,266.553,40.5141,228.121,218.018,250.168,185.683,225.547
204,0,24.1517,435.119,1153.53,38.8634,168.668,1161.2,-174.047,332.505,1225.68,-162.525,230.47,1216.93,-92.1146,482.613,870.447,-134.985,451.154,677.586,-230.796,451.246,527.439,-319.146,385.385,290.819,-391.579,341.746,268.634,-193.786,369.688,187.255,72.0997,104.897,883.711,110.9,144.714,696.786,104.222,139.569,482.046,116.405,184.439,264.539,55.1113,228.869,214.275,265.203,186.705,228.004
205,0,24.7064,434.43,1153.57,40.756,168.437,1161.52,-173.031,330.809,1225.55,-161.02,228.692,1216.85,-93.4814,481.441,870.676,-137.199,450.409,677.72,-235.717,450.857,529.331,-329.189,385.347,294.552,-402.265,341.988,274.649,-207.507,369.115,187.074,69.8895,103.507,881.878,108.186,144.336,695.444,107.737,139.695,480.305,126.916,185.126,262.875,67.0699,229.532,211.285,277.619,187.93,230.083
206,0,25.3993,433.692,1153.33,42.7458,168.155,1161.4,-171.922,329.061,1225.03,-159.436,226.841,1216.39,-94.0307,480.346,870.537,-138.087,449.775,677.356,-239.548,450.623,530.94,-338.563,385.453,298.311,-412.418,342.403,280.955,-221.204,368.532,186.847,67.9354,102.282,879.624,105.992,144.065,693.883,110.458,139.881,478.589,134.988,185.827,261.439,76.1636,230.122,208.921,287.204,189.352,231.48
207,0,26.2097,432.894,1152.78,44.7981,167.798,1160.86,-170.749,327.287,1224.1,-157.809,224.942,1215.58,-93.7104,479.335,869.971,-137.623,449.286,676.456,-242.229,450.568,532.245,-347.143,385.723,302.102,-421.883,343.001,287.582,-234.858,367.937,186.561,66.407,101.286,877.09,104.387,143.905,692.16,112.375,140.12,476.879,140.52,186.543,260.123,82.2469,230.651,207.067,293.802,190.948,231.945
208,0,27.1128,432.023,1151.92,46.877,167.346,1159.91,-169.543,325.515,1222.77,-156.176,223.025,1214.42,-92.4775,478.415,868.922,-135.802,448.975,674.995,-243.711,450.711,533.231,-354.818,386.176,305.943,-430.482,343.78,294.566,-248.455,367.329,186.216,65.447,100.567,874.421,103.403,143.849,690.326,113.489,140.403,475.161,143.476,187.273,258.839,85.2662,231.127,205.619,297.334,192.678,231.32
209,0,28.0803,431.071,1150.73,48.946,166.779,1158.58,-168.334,323.772,1221.04,-154.578,221.121,1212.94,-90.3031,477.594,867.354,-132.649,448.872,672.967,-243.959,451.067,533.898,-361.491,386.826,309.864,-438.03,344.733,301.944,-261.977,366.705,185.833,65.158,100.146,871.751,103.037,143.876,688.419,113.807,140.714,473.418,143.893,188.011,257.522,85.2657,231.553,204.492,297.81,194.487,229.566
210,0,29.0817,430.034,1149.21,50.9689,166.081,1156.91,-167.156,322.085,1218.91,-153.051,219.261,1211.16,-87.1771,476.88,865.245,-128.208,448.998,670.385,-242.955,451.646,534.258,-367.08,387.682,313.909,-444.345,345.846,309.754,-275.389,366.065,185.463,65.5913,100.01,869.193,103.245,143.959,686.465,113.345,141.032,471.637,141.872,188.743,256.135,82.3879,231.926,203.621,295.343,196.303,226.764
211,0,30.0849,428.913,1147.37,52.9105,165.242,1154.94,-166.037,320.479,1216.42,-151.63,217.474,1209.11,-83.1129,476.281,862.601,-122.548,449.367,667.284,-240.692,452.452,534.333,-371.519,388.746,318.134,-449.261,347.096,318.024,-288.626,365.41,185.192,66.7392,100.116,866.834,103.95,144.059,684.483,112.127,141.335,469.808,137.583,189.453,254.667,76.8665,232.235,202.958,290.149,198.047,223.109
212,0,31.058,427.711,1145.23,54.7378,164.256,1152.72,-165.005,318.975,1213.59,-150.348,215.788,1206.84,-78.1502,475.807,859.461,-115.752,449.982,663.72,-237.181,453.48,534.159,-374.761,390.009,322.602,-452.643,348.455,326.773,-301.579,364.752,185.139,68.5312,100.391,864.722,105.043,144.135,682.477,110.181,141.596,467.926,131.248,190.119,253.127,69.0124,232.464,202.468,282.541,199.639,218.882
213,0,31.9707,426.44,1142.8,56.4198,163.123,1150.3,-164.084,317.591,1210.45,-149.23,214.227,1204.37,-72.3572,475.467,855.89,-107.919,450.836,659.771,-232.449,454.722,533.782,-376.774,391.454,327.372,-454.4,349.886,335.993,-314.078,364.114,185.453,70.8357,100.742,862.874,106.388,144.141,680.446,107.539,141.791,465.989,123.13,190.715,251.541,59.1938,232.595,202.129,272.902,201.008,214.405
214,0,32.7952,425.113,1140.1,57.9293,161.851,1147.72,-163.294,316.34,1207.06,-148.298,212.811,1201.76,-65.8305,475.268,851.987,-99.1581,451.912,655.533,-226.537,456.16,533.258,-377.544,393.048,332.498,-454.492,351.345,345.652,-325.888,363.538,186.296,73.4672,101.062,861.268,107.831,144.032,678.382,104.234,141.895,464,113.521,191.217,249.947,47.8109,232.611,201.924,261.662,202.098,210
215,0,33.5078,423.746,1137.19,59.2426,160.451,1145.03,-162.648,315.227,1203.47,-147.568,211.555,1199.06,-58.694,475.216,847.872,-89.5809,453.182,651.118,-219.501,457.769,532.65,-377.068,394.746,338.01,-452.938,352.78,355.68,-336.701,363.08,187.826,76.1986,101.245,859.853,109.208,143.771,676.274,100.303,141.889,461.967,102.725,191.602,248.382,35.2705,232.499,201.838,249.263,202.875,205.946
216,0,34.0894,422.361,1134.11,60.3407,158.942,1142.29,-162.155,314.256,1199.76,-147.048,210.465,1196.31,-51.0953,475.309,843.683,-79.3022,454.611,646.654,-211.407,459.516,532.022,-375.357,396.494,343.915,-449.811,354.132,365.966,-346.155,362.815,190.174,78.7781,101.196,858.557,110.352,143.325,674.11,95.7766,141.756,459.899,91.0372,191.851,246.885,21.9596,232.253,201.853,236.118,203.329,202.445
217,0,34.5269,420.976,1130.91,61.2094,157.343,1139.55,-161.818,313.423,1195.98,-146.742,209.547,1193.57,-43.2003,475.543,839.561,-68.4331,456.159,642.273,-202.335,461.365,531.443,-372.43,398.227,350.182,-445.234,355.34,376.361,-353.844,362.83,193.416,80.9493,100.839,857.298,111.103,142.675,671.88,90.6884,141.488,457.812,78.7362,191.953,245.486,8.22389,231.877,201.951,222.59,203.473,199.611
218,0,34.813,419.614,1127.66,61.84,155.68,1136.85,-161.635,312.721,1192.23,-146.645,208.795,1190.89,-35.1863,475.903,835.641,-57.0796,457.781,638.111,-192.37,463.272,530.974,-368.31,399.881,356.741,-439.365,356.347,386.677,-359.355,363.208,197.56,82.4723,100.128,855.993,111.316,141.812,669.58,85.0664,141.082,455.72,66.0667,191.905,244.205,-5.64857,231.384,202.111,208.967,203.345,197.463
219,0,34.9463,418.292,1124.42,62.2289,153.98,1134.23,-161.597,312.138,1188.56,-146.748,208.202,1188.34,-27.2329,476.369,832.039,-45.3398,459.433,634.303,-181.607,465.188,530.676,-363.026,401.392,363.485,-432.384,357.101,396.696,-362.302,364.022,202.53,83.1442,99.0485,854.574,110.865,140.744,667.21,78.9362,140.543,453.643,53.2327,191.712,243.054,-19.4367,230.795,202.31,195.456,202.995,195.948
220,0,34.9313,417.026,1121.26,62.3784,152.268,1131.73,-161.693,311.66,1185.07,-147.036,207.753,1185.94,-19.5118,476.912,828.85,-33.303,461.071,630.976,-170.144,467.064,530.597,-356.607,402.706,370.268,-424.472,357.57,406.177,-362.358,365.311,208.168,82.816,97.6177,852.994,109.651,139.489,664.779,72.3195,139.883,451.599,40.3931,191.389,242.034,-32.989,230.14,202.526,182.181,202.482,194.956
221,0,34.7775,415.83,1118.24,62.296,150.573,1129.38,-161.909,311.273,1181.83,-147.489,207.431,1183.76,-12.1759,477.5,826.137,-21.0497,462.653,628.244,-158.081,468.848,530.777,-349.085,403.785,376.916,-415.801,357.741,414.87,-359.285,367.068,214.248,81.4048,95.8841,851.232,107.603,138.081,662.305,65.2348,139.121,449.611,27.6602,190.958,241.138,-46.2198,229.452,202.739,169.2,201.868,194.348
222,0,34.4984,414.711,1115.45,61.9944,148.917,1127.21,-162.226,310.962,1178.9,-148.085,207.215,1181.83,-5.34939,478.098,823.941,-8.65276,464.142,626.208,-145.521,470.492,531.242,-340.49,404.609,383.232,-406.511,357.627,422.527,-352.964,369.234,220.495,78.8991,93.9209,849.298,104.678,136.563,659.812,57.6981,138.281,447.699,15.1023,190.445,240.355,-59.1004,228.763,202.932,156.512,201.208,193.986
223,0,34.1113,413.675,1112.93,61.4909,147.325,1125.26,-162.627,310.709,1176.34,-148.797,207.082,1180.18,0.88116,478.671,822.277,3.8213,465.506,624.95,-132.565,471.949,532.005,-330.858,405.177,389.008,-396.711,357.267,428.915,-343.395,371.694,226.613,75.3572,91.8196,847.23,100.861,134.987,657.331,49.7231,137.391,445.886,2.74917,189.882,239.67,-71.6475,228.106,203.096,144.079,200.549,193.745
224,0,33.6352,412.722,1110.75,60.8071,145.814,1123.52,-163.092,310.502,1174.21,-149.599,207.009,1178.85,6.47246,479.187,821.145,16.3094,466.715,624.532,-119.314,473.18,533.065,-320.226,405.505,394.038,-386.462,356.719,433.826,-330.697,374.29,232.315,70.8983,89.6817,845.088,96.1635,133.408,654.899,41.3229,136.481,444.196,-9.40117,189.299,239.071,-83.9097,227.505,203.226,131.843,199.925,193.533
225,0,33.0908,411.849,1108.96,59.9679,144.401,1122.03,-163.604,310.327,1172.55,-150.46,206.972,1177.86,11.4265,479.621,820.536,28.7489,467.746,624.991,-105.868,474.152,534.407,-308.636,405.626,398.127,-375.788,356.057,437.084,-315.093,376.84,237.349,65.6884,87.6106,842.947,90.6169,131.883,652.556,32.5107,135.583,442.651,-21.3744,188.725,238.548,-95.9547,226.979,203.328,119.738,199.358,193.29
226,0,32.4986,411.054,1107.6,59.0006,143.098,1120.78,-164.144,310.171,1171.37,-151.355,206.949,1177.21,15.7882,479.955,820.442,41.0752,468.58,626.342,-92.322,474.841,536.002,-296.135,405.58,401.103,-364.672,355.355,438.552,-296.884,379.164,241.517,59.9217,85.704,840.885,84.27,130.466,650.344,23.3011,134.727,441.275,-33.2115,188.185,238.096,-107.857,226.538,203.413,107.699,198.856,192.99
227,0,31.8792,410.329,1106.69,57.9348,141.913,1119.78,-164.697,310.025,1170.71,-152.254,206.919,1176.92,19.6388,480.179,820.853,53.218,469.202,628.576,-78.7702,475.235,537.808,-282.772,405.41,402.824,-353.065,354.68,438.134,-276.418,381.115,244.684,53.8003,84.0466,838.979,77.1838,129.206,648.305,13.7114,133.939,440.091,-44.9613,187.698,237.715,-119.69,226.181,203.5,95.6734,198.42,192.633
228,0,31.2518,409.668,1106.26,56.8006,140.854,1119.03,-165.249,309.88,1170.55,-153.131,206.866,1176.98,23.0852,480.295,821.764,65.1001,469.601,631.658,-65.3021,475.33,539.772,-268.602,405.159,403.184,-340.894,354.078,435.777,-254.064,382.6,246.789,47.5154,82.7053,837.29,69.4282,128.141,646.48,3.76264,133.244,439.12,-56.6739,187.276,237.415,-131.518,225.902,203.616,83.6181,198.043,192.238
229,0,30.6345,409.068,1106.31,55.6284,139.921,1118.53,-165.787,309.727,1170.89,-153.962,206.775,1177.38,26.2475,480.311,823.175,76.6356,469.771,635.525,-52.0025,475.132,541.829,-253.677,404.858,402.12,-328.068,353.568,431.469,-230.181,383.598,247.833,41.2301,81.7259,835.867,61.0777,127.301,644.904,-6.51964,132.658,438.386,-68.3952,186.924,237.211,-143.39,225.685,203.79,71.5039,197.715,191.829
230,0,30.0443,408.524,1106.84,54.4482,139.117,1118.26,-166.301,309.562,1171.72,-154.725,206.638,1178.12,29.2454,480.242,825.082,87.7299,469.709,640.094,-38.9514,474.657,543.908,-238.042,404.533,399.61,-314.489,353.143,425.239,-205.097,384.162,247.873,35.0681,81.131,834.736,52.2101,126.702,643.61,-17.1043,132.193,437.907,-80.1633,186.639,237.124,-155.341,225.512,204.061,59.3122,197.427,191.434
231,0,29.497,408.035,1107.84,53.2884,138.44,1118.22,-166.779,309.378,1173,-155.399,206.448,1179.18,32.1851,480.108,827.48,98.281,469.42,645.256,-26.2222,473.928,545.931,-221.734,404.194,395.677,-300.053,352.766,417.158,-179.094,384.415,247.014,29.1076,80.9214,833.905,42.9041,126.351,642.624,-27.9543,131.857,437.701,-92.0062,186.413,237.181,-167.394,225.358,204.469,47.033,197.168,191.073
232,0,29.0076,407.602,1109.27,52.176,137.887,1118.38,-167.211,309.173,1174.69,-155.967,206.205,1180.53,35.1496,479.933,830.355,108.181,468.909,650.883,-13.8819,472.972,547.817,-204.776,403.844,390.386,-284.657,352.386,407.334,-152.401,384.526,245.389,23.3813,81.0773,833.369,33.2398,126.239,641.967,-39.0263,131.648,437.784,-103.941,186.231,237.414,-179.554,225.198,205.059,34.6617,196.932,190.757
233,0,28.591,407.228,1111.11,51.1355,137.456,1118.74,-167.587,308.946,1176.76,-156.413,205.912,1182.14,38.1919,479.742,833.681,117.32,468.19,656.831,-1.9895,471.822,549.488,-187.169,403.48,383.839,-268.205,351.944,395.918,-125.185,384.683,243.155,17.8811,81.5623,833.111,23.2984,126.351,641.652,-50.2704,131.559,438.167,-115.972,186.073,237.854,-191.818,225.008,205.878,22.1976,196.713,190.488
234,0,28.2623,406.918,1113.32,50.1892,137.143,1119.27,-167.897,308.698,1179.14,-156.723,205.579,1184,41.3326,479.556,837.414,125.589,467.279,662.946,9.40418,470.511,550.868,-168.901,403.093,376.179,-250.609,351.385,383.096,-97.5594,385.064,240.477,12.569,82.3273,833.109,13.1631,126.66,641.687,-61.6307,131.581,438.857,-128.096,185.919,238.535,-204.173,224.763,206.972,9.64152,196.507,190.258
235,0,28.0374,406.679,1115.85,49.3564,136.944,1119.97,-168.126,308.435,1181.79,-156.888,205.218,1186.06,44.5614,479.396,841.501,132.888,466.199,669.065,20.257,469.073,551.889,-149.94,402.676,367.577,-231.795,350.672,369.092,-69.5903,385.805,237.523,7.38826,83.3157,833.343,2.92063,127.135,642.071,-73.0452,131.696,439.857,-140.297,185.747,239.491,-216.599,224.44,208.391,-3.00489,196.314,190.055
236,0,27.9331,406.515,1118.65,48.6542,136.854,1120.81,-168.262,308.163,1184.65,-156.897,204.847,1188.3,47.841,479.279,845.867,139.124,464.975,675.031,30.5358,467.541,552.497,-130.247,402.224,358.236,-211.708,349.791,354.167,-41.3063,386.975,234.46,2.27816,84.4683,833.795,-7.33768,127.74,642.797,-84.4467,131.886,441.164,-152.554,185.533,240.749,-229.075,224.02,210.178,-15.7394,196.128,189.865
237,0,27.9675,406.433,1121.68,48.0967,136.87,1121.78,-168.289,307.896,1187.66,-156.743,204.484,1190.69,51.1138,479.215,850.429,144.224,463.638,680.69,40.2162,465.946,552.65,-109.784,401.736,348.384,-190.318,348.756,338.614,-12.7154,388.567,231.451,-2.81376,85.7271,834.453,-17.5149,128.437,643.849,-95.7635,132.131,442.768,-164.838,185.259,242.336,-241.576,223.486,212.376,-28.5591,195.949,189.674
238,0,28.1598,406.437,1124.87,47.6955,136.988,1122.86,-168.19,307.649,1190.77,-156.421,204.155,1193.18,54.3082,479.215,855.092,148.135,462.22,685.905,49.2827,464.317,552.327,-88.5262,401.216,338.264,-167.632,347.606,322.747,16.1771,390.493,228.66,-7.92057,87.0397,835.31,-27.5079,129.188,645.201,-106.92,132.407,444.653,-177.116,184.907,244.269,-254.075,222.826,215.021,-41.4602,195.769,189.472
239,0,28.5299,406.528,1128.18,47.4599,137.203,1124.05,-167.948,307.444,1193.92,-155.928,203.883,1195.74,57.3454,479.286,859.755,150.832,460.753,690.559,57.7279,462.679,551.523,-66.4777,400.672,328.133,-143.7,346.4,306.899,45.3505,392.597,226.25,-13.0481,88.3619,836.365,-37.2068,129.959,646.821,-117.839,132.693,446.798,-189.35,184.465,246.561,-266.546,222.033,218.141,-54.4376,195.584,189.253
240,0,29.098,406.705,1131.54,47.3967,137.512,1125.31,-167.543,307.303,1197.05,-155.261,203.695,1198.34,60.1451,479.434,864.313,152.319,459.274,694.556,65.5522,461.056,550.252,-43.6889,400.112,318.248,-118.627,345.204,291.404,74.7493,394.682,224.384,-18.171,89.6596,837.614,-46.4961,130.719,648.664,-128.44,132.968,449.173,-201.499,183.926,249.216,-278.959,221.103,221.757,-67.4849,195.389,189.018
241,0,29.8832,406.964,1134.9,47.5105,137.911,1126.64,-166.959,307.253,1200.12,-154.42,203.617,1200.93,62.6305,479.668,868.66,152.634,457.815,697.832,72.7627,459.471,548.545,-20.2686,399.546,308.855,-92.5841,344.084,276.582,104.267,396.535,223.223,-23.2314,90.9091,839.048,-55.2554,131.442,650.678,-138.644,133.212,451.743,-213.52,183.286,252.231,-291.282,220.042,225.88,-80.5945,195.177,188.772
242,0,30.9031,407.298,1138.2,47.8041,138.395,1128.02,-166.18,307.323,1203.06,-153.408,203.673,1203.47,64.7322,479.998,872.692,151.855,456.407,700.35,79.373,457.944,546.448,3.60419,398.982,300.174,-65.818,343.097,262.726,133.733,397.968,222.918,-28.1424,92.0973,840.651,-63.362,132.107,652.799,-148.373,133.408,454.468,-225.366,182.549,255.595,-303.478,218.86,230.512,-93.7587,194.945,188.524
243,0,32.1723,407.699,1141.39,48.2778,138.96,1129.43,-165.191,307.542,1205.83,-152.229,203.888,1205.92,66.3925,480.433,876.311,150.092,455.078,702.101,85.4016,456.493,544.018,27.6755,398.425,292.387,-38.6531,342.28,250.079,162.903,398.84,223.595,-32.7927,93.2203,842.391,-70.6931,132.7,654.957,-157.548,133.541,457.305,-236.987,181.722,259.288,-315.504,217.574,235.649,-106.97,194.691,188.282
244,0,33.7009,408.155,1144.41,48.9301,139.604,1130.84,-163.985,307.936,1208.38,-150.89,204.279,1208.23,67.569,480.982,879.424,147.495,453.851,703.107,90.8711,455.136,541.321,51.6177,397.876,285.622,-11.4934,341.647,238.826,191.46,399.08,225.332,-37.0535,94.2821,844.223,-77.1296,133.21,657.071,-166.097,133.599,460.205,-248.33,180.818,263.287,-327.306,216.209,241.275,-120.224,194.419,188.053
245,0,35.4938,408.655,1147.22,49.7571,140.321,1132.22,-162.555,308.53,1210.67,-149.401,204.861,1210.34,68.2398,481.648,881.947,144.246,452.743,703.414,95.8072,453.889,538.424,75.0388,397.335,279.944,15.1856,341.196,229.077,219.019,398.696,228.132,-40.787,95.2917,846.081,-82.5599,133.631,659.058,-173.951,133.573,463.12,-259.339,179.851,267.56,-338.819,214.796,247.375,-133.518,194.132,187.841
246,0,37.5494,409.189,1149.75,50.7526,141.109,1133.54,-160.904,309.344,1212.66,-147.774,205.644,1212.21,68.4079,482.424,883.809,140.552,451.765,703.09,100.237,452.766,535.393,97.4979,396.801,275.346,40.8513,340.904,220.869,245.142,397.769,231.901,-43.8542,96.2616,847.886,-86.884,133.961,660.829,-181.044,133.456,466.002,-269.953,178.838,272.076,-349.966,213.369,253.925,-146.854,193.836,187.644
247,0,39.8588,409.746,1151.98,51.908,141.962,1134.77,-159.04,310.391,1214.31,-146.026,206.629,1213.8,68.1068,483.292,884.957,136.641,450.922,702.216,104.19,451.779,532.292,118.529,396.273,271.752,64.9366,340.739,214.159,269.36,396.435,236.427,-46.1236,97.205,849.543,-90.0177,134.199,662.298,-187.317,133.244,468.805,-280.107,177.796,276.799,-360.657,211.964,260.902,-160.237,193.539,187.459
248,0,42.405,410.319,1153.85,53.2123,142.878,1135.86,-156.979,311.674,1215.59,-144.176,207.814,1215.04,67.4037,484.219,885.361,132.75,450.212,700.887,107.691,450.937,529.178,137.667,395.749,269.025,86.8697,340.666,208.842,291.199,394.863,241.373,-47.4784,98.1336,850.951,-91.8965,134.344,663.381,-192.719,132.934,471.487,-289.733,176.741,281.698,-370.789,210.62,268.284,-173.677,193.25,187.278
249,0,45.1633,410.904,1155.34,54.6514,143.85,1136.77,-154.742,313.191,1216.47,-142.245,209.187,1215.89,66.4025,485.156,885.018,129.111,449.627,699.202,110.768,450.246,526.099,154.478,395.23,266.98,106.109,340.648,204.76,310.215,393.222,246.295,-47.8235,99.0565,852.009,-92.4785,134.399,664.003,-197.204,132.526,474.013,-298.761,175.686,286.741,-380.25,209.37,276.048,-187.184,192.976,187.096
250,0,48.101,411.499,1156.41,56.2089,144.874,1137.45,-152.362,314.924,1216.92,-140.26,210.731,1216.32,65.2418,486.046,883.96,125.94,449.158,697.258,113.443,449.709,523.093,168.59,394.715,265.405,122.181,340.656,201.721,326.027,391.662,250.677,-47.0914,99.9782,852.617,-91.7471,134.363,664.101,-200.733,132.023,476.354,-307.118,174.64,291.902,-388.92,208.24,284.174,-200.763,192.725,186.912
251,0,51.1783,412.108,1157.06,57.8654,145.943,1137.86,-149.876,316.849,1216.93,-138.246,212.42,1216.28,64.09,486.825,882.256,123.425,448.791,695.149,115.736,449.327,520.193,179.716,394.202,264.087,134.714,340.664,199.523,338.349,390.292,253.987,-45.2464,100.898,852.695,-89.7115,134.238,663.627,-203.274,131.427,478.489,-314.731,173.609,297.164,-396.678,207.249,292.644,-214.409,192.502,186.741
252,0,54.3489,412.734,1157.28,59.5992,147.05,1137.95,-147.327,318.929,1216.5,-136.233,214.225,1215.75,63.1348,487.437,880.017,121.711,448.515,692.956,117.661,449.096,517.421,187.679,393.687,262.829,143.474,340.653,197.971,347.017,389.168,255.753,-42.2877,101.81,852.181,-86.4068,134.025,662.554,-204.804,130.744,480.407,-321.528,172.594,302.515,-403.404,206.406,301.439,-228.1,192.312,186.612
253,0,57.5618,413.388,1157.06,61.3862,148.185,1137.7,-144.764,321.118,1215.61,-134.251,216.109,1214.71,62.5683,487.84,877.387,120.893,448.32,690.751,119.229,449.011,514.793,192.422,393.165,261.477,148.378,340.61,196.889,352.009,388.3,255.631,-38.2512,102.704,851.04,-81.8917,133.726,660.875,-205.306,129.981,482.106,-327.439,171.593,307.949,-408.99,205.706,310.54,-241.783,192.159,186.578
254,0,60.7628,414.078,1156.43,63.2008,149.338,1137.07,-142.236,323.362,1214.29,-132.329,218.035,1213.16,62.5683,488.018,874.539,121.005,448.201,688.585,120.443,449.065,512.32,194.01,392.628,259.929,149.512,340.524,196.139,353.448,387.655,253.466,-33.2087,103.565,849.271,-76.2455,133.346,658.608,-204.77,129.147,483.595,-332.398,170.603,313.471,-413.341,205.138,319.924,-255.368,192.041,186.713
255,0,63.896,414.814,1155.4,65.0156,150.498,1136.04,-139.797,325.602,1212.55,-130.495,219.96,1211.11,63.2769,487.988,871.661,122.02,448.158,686.499,121.302,449.247,510.009,192.629,392.069,258.143,147.117,340.389,195.614,351.599,387.175,249.33,-27.2654,104.373,846.906,-69.5636,132.892,655.795,-203.195,128.253,484.888,-336.345,169.617,319.086,-416.385,204.678,329.558,-268.714,191.952,187.114
256,0,66.9061,415.606,1154.02,66.8031,151.652,1134.62,-137.496,327.773,1210.41,-128.776,221.843,1208.58,64.7804,487.797,868.935,123.852,448.197,684.513,121.798,449.548,507.862,188.566,391.483,256.134,141.574,340.201,195.244,346.846,386.792,243.515,-20.5561,105.11,844.01,-61.9526,132.375,652.503,-200.585,127.314,486.011,-339.228,168.632,324.804,-418.074,204.299,339.399,-281.63,191.879,187.892
257,0,69.7401,416.463,1152.33,68.5357,152.787,1132.81,-135.381,329.814,1207.94,-127.196,223.645,1205.61,67.0919,487.524,866.524,126.357,448.33,682.633,121.918,449.955,505.877,182.187,390.871,253.964,133.37,339.961,194.989,339.656,386.444,236.499,-13.2381,105.758,840.676,-53.5244,131.808,648.82,-196.954,126.343,486.992,-341.001,167.647,330.631,-418.392,203.975,349.39,-293.864,191.799,189.165
258,0,72.3496,417.39,1150.37,70.1865,153.89,1130.65,-133.491,331.665,1205.17,-125.773,225.326,1202.26,70.1409,487.268,864.543,129.346,448.574,680.853,121.642,450.456,504.05,173.904,390.237,251.725,123.053,339.673,194.825,330.543,386.086,228.874,-5.48379,106.3,837.024,-44.391,131.213,644.851,-192.322,125.361,487.867,-341.631,166.663,336.568,-417.352,203.678,359.454,-305.116,191.674,191.037
259,0,74.6919,418.387,1148.21,71.7308,154.949,1128.16,-131.861,333.274,1202.17,-124.524,226.854,1198.6,73.771,487.131,863.053,132.596,448.946,679.152,120.944,451.04,502.374,164.151,389.594,249.525,111.188,339.347,194.743,320.018,385.694,221.257,2.52842,106.726,833.184,-34.6598,130.612,640.72,-186.715,124.386,488.67,-341.091,165.687,342.605,-414.996,203.388,369.497,-315.043,191.458,193.591
260,0,76.7322,419.453,1145.91,73.1459,155.953,1125.41,-130.514,334.6,1199.01,-123.458,228.202,1194.71,77.7479,487.207,862.047,135.867,449.464,677.507,119.795,451.692,500.838,153.343,388.962,247.463,98.3169,338.997,194.738,308.554,385.267,214.206,10.6236,107.033,829.298,-24.4297,130.032,636.558,-180.17,123.44,489.44,-339.369,164.728,348.719,-411.395,203.09,379.406,-323.279,191.097,196.868
261,0,78.4441,420.581,1143.53,74.4124,156.891,1122.48,-129.466,335.613,1195.76,-122.58,229.35,1190.67,81.7772,487.566,861.454,138.914,450.139,675.886,118.164,452.398,499.43,141.861,388.361,245.622,84.9159,338.637,194.803,296.552,384.819,208.143,18.6396,107.226,825.499,-13.7891,129.506,632.503,-172.73,122.546,490.211,-336.464,163.801,354.867,-406.644,202.779,389.047,-329.463,190.534,200.855
262,0,79.8106,421.759,1141.13,75.5148,157.757,1119.43,-128.72,336.299,1192.52,-121.891,230.285,1186.59,85.53,488.243,861.15,141.507,450.978,674.261,116.019,453.144,498.132,130.022,387.816,244.059,71.3753,338.283,194.93,284.325,384.376,203.322,26.4347,107.319,821.914,-2.81481,129.063,628.69,-164.447,121.727,491.015,-332.386,162.92,360.988,-400.851,202.451,398.277,-333.259,189.72,205.483
263,0,80.8244,422.973,1138.78,76.4413,158.546,1116.36,-128.27,336.66,1189.35,-121.386,231.005,1182.56,88.6748,489.231,860.975,143.441,451.975,672.606,113.327,453.914,496.929,118.077,387.35,242.795,57.9839,337.95,195.106,272.091,383.969,199.814,33.8944,107.335,818.648,8.4273,128.738,625.249,-155.379,121.006,491.878,-327.156,162.101,367,-394.136,202.108,406.939,-334.39,188.629,210.62
264,0,81.4879,424.204,1136.52,77.1848,159.256,1113.35,-128.099,336.713,1186.35,-121.059,231.513,1178.69,90.9099,490.486,860.761,144.552,453.115,670.903,110.064,454.691,495.805,106.203,386.978,241.827,44.9289,337.646,195.317,259.985,383.621,197.53,40.9351,107.306,815.787,19.8801,128.561,622.301,-145.592,120.404,492.821,-320.808,161.357,372.805,-386.617,201.748,414.874,-332.661,187.262,216.084
265,0,81.8124,425.431,1134.41,77.7422,159.89,1110.51,-128.185,336.491,1183.59,-120.897,231.821,1175.07,91.9944,491.931,860.355,144.716,454.369,669.146,106.209,455.456,494.745,94.5069,386.708,241.125,32.3053,337.376,195.55,248.068,383.351,196.269,47.5056,107.266,813.394,31.4924,128.559,619.951,-135.161,119.94,493.856,-313.384,160.696,378.284,-378.407,201.367,421.925,-327.977,185.658,221.652
266,0,81.8171,426.634,1132.49,78.115,160.45,1107.92,-128.496,336.038,1181.13,-120.889,231.949,1171.79,91.7721,493.467,859.647,143.86,455.698,667.34,101.751,456.19,493.739,83.0396,386.542,240.648,20.1319,337.142,195.794,236.351,383.164,195.768,53.5863,107.254,811.51,43.2153,128.758,618.288,-124.163,119.629,494.989,-304.933,160.123,383.311,-369.604,200.954,427.94,-320.348,183.895,227.083
267,0,81.5282,427.791,1130.81,78.3084,160.943,1105.67,-128.999,335.41,1179.06,-121.02,231.92,1168.94,90.187,494.986,858.582,141.958,457.054,665.502,96.6857,456.875,492.78,71.8041,386.469,240.345,8.37153,336.939,196.043,224.809,383.056,195.751,59.1852,107.305,810.16,54.9984,129.174,617.379,-112.683,119.484,496.216,-295.512,159.634,387.751,-360.288,200.489,432.78,-309.891,182.087,232.138
268,0,80.977,428.881,1129.39,78.3312,161.376,1103.82,-129.657,334.667,1177.4,-121.276,231.764,1166.57,87.286,496.384,857.172,139.026,458.381,663.662,91.0199,457.492,491.868,60.7712,386.471,240.172,-3.04807,336.759,196.296,213.403,383.013,195.972,64.3332,107.448,809.355,66.7867,129.818,617.27,-100.807,119.509,497.526,-285.18,159.224,391.471,-350.516,199.95,436.322,-296.811,180.364,236.6
269,0,80.1985,429.886,1128.26,78.1953,161.756,1102.44,-130.434,333.871,1176.21,-121.643,231.511,1164.75,83.2119,497.572,855.489,135.114,459.622,661.859,84.7675,458.022,491.009,49.8925,386.527,240.089,-14.2161,336.593,196.559,202.086,383.015,196.239,69.0779,107.704,809.099,78.5175,130.692,617.988,-88.6236,119.707,498.9,-273.994,158.878,394.343,-340.321,199.314,438.459,-281.381,178.859,240.297
270,0,79.2295,430.789,1127.42,77.9154,162.092,1101.57,-131.294,333.081,1175.51,-122.108,231.194,1163.51,78.1837,498.486,853.654,130.298,460.719,660.136,77.95,458.45,490.214,39.1114,386.61,240.071,-25.2236,336.433,196.842,190.815,383.039,196.426,73.4772,108.081,809.391,90.1189,131.791,619.535,-76.2202,120.071,500.314,-262.013,158.583,396.254,-329.715,198.56,439.107,-263.908,177.685,243.11
271,0,78.1068,431.579,1126.89,77.5079,162.389,1101.24,-132.207,332.353,1175.31,-122.66,230.842,1162.88,72.4701,499.088,851.817,124.671,461.622,658.54,70.5936,458.761,489.499,28.3716,386.694,240.102,-36.1531,336.272,197.159,179.557,383.06,196.47,77.5935,108.574,810.232,101.509,133.099,621.893,-63.683,120.592,501.735,-249.288,158.322,397.111,-318.685,197.678,438.203,-244.707,176.916,244.984
272,0,76.8664,432.245,1126.67,76.9912,162.653,1101.45,-133.146,331.731,1175.61,-123.286,230.484,1162.85,66.3577,499.365,850.135,118.331,462.289,657.116,62.7282,458.945,488.886,17.6227,386.757,240.183,-47.0725,336.108,197.527,168.284,383.057,196.359,81.4889,109.168,811.622,112.597,134.591,625.024,-51.094,121.252,503.13,-235.863,158.082,396.845,-307.198,196.671,435.708,-224.072,176.57,245.927
273,0,75.5411,432.784,1126.74,76.3846,162.887,1102.22,-134.09,331.246,1176.41,-123.976,230.144,1163.42,60.1191,499.332,848.75,111.373,462.688,655.904,54.3855,458.994,488.395,6.82319,386.781,240.321,-58.0331,335.94,197.964,156.977,383.015,196.116,85.2215,109.835,813.561,123.283,136.234,628.868,-38.5297,122.03,504.459,-221.774,157.852,395.417,-295.205,195.559,431.611,-202.257,176.609,246.003
274,0,74.1609,433.193,1127.09,75.7084,163.093,1103.52,-135.023,330.918,1177.67,-124.721,229.839,1164.56,53.9838,499.018,847.771,103.885,462.805,654.935,45.5979,458.904,488.052,-4.05839,386.752,240.533,-69.0699,335.771,198.49,145.623,382.925,195.785,88.8429,110.542,816.048,133.464,137.988,633.351,-26.0599,122.901,505.684,-207.046,157.628,392.82,-282.642,194.378,425.928,-179.466,176.938,245.319
275,0,72.7512,433.477,1127.72,74.9835,163.269,1105.33,-135.935,330.753,1179.37,-125.51,229.583,1166.24,48.1174,498.465,847.263,95.942,462.636,654.234,36.3979,458.677,487.881,-15.0439,386.665,240.841,-80.2045,335.604,199.124,134.212,382.781,195.411,92.3966,111.253,819.08,143.033,139.805,638.383,-13.7466,123.837,506.768,-191.694,157.411,389.08,-269.436,193.184,418.706,-155.848,177.425,244.012
276,0,71.3332,433.641,1128.58,74.231,163.415,1107.6,-136.818,330.741,1181.46,-126.332,229.381,1168.4,42.6094,497.718,847.245,87.6057,462.193,653.812,26.8178,458.317,487.902,-26.1466,386.518,241.267,-91.448,335.443,199.888,122.737,382.586,195.036,95.9164,111.935,822.645,151.886,141.634,643.859,-1.64356,124.806,507.676,-175.726,157.211,384.255,-255.506,192.039,410.026,-131.511,177.916,242.233
277,0,69.9238,433.695,1129.66,73.4724,163.527,1110.29,-137.672,330.863,1183.9,-127.176,229.231,1171,37.4724,496.82,847.691,78.9262,461.5,653.677,16.8905,457.832,488.136,-37.373,386.316,241.835,-102.804,335.295,200.802,111.19,382.345,194.69,99.4256,112.558,826.719,159.924,143.419,649.667,10.2038,125.776,508.377,-159.143,157.042,378.437,-240.773,191.017,400.003,-106.528,178.267,240.128
278,0,68.5361,433.65,1130.94,72.7293,163.602,1113.35,-138.493,331.085,1186.63,-128.026,229.127,1173.97,32.6514,495.807,848.542,69.9437,460.589,653.825,6.64998,457.235,488.597,-48.7238,386.065,242.566,-114.273,335.159,201.887,99.5648,382.067,194.391,102.935,113.102,831.269,167.059,145.105,655.686,21.7583,126.717,508.849,-141.945,156.924,371.745,-225.165,190.187,388.788,-80.9581,178.361,237.831
279,0,67.1796,433.521,1132.38,72.023,163.64,1116.71,-139.283,331.37,1189.6,-128.867,229.055,1177.24,28.0414,494.71,849.716,60.6924,459.503,654.248,-3.86787,456.54,489.299,-60.1951,385.775,243.478,-125.851,335.037,203.166,87.8524,381.763,194.14,106.44,113.553,836.242,173.214,146.639,661.792,32.9899,127.6,509.074,-124.136,156.879,364.325,-208.623,189.612,376.564,-54.8598,178.13,235.454
280,0,65.8616,433.322,1133.96,71.3748,163.638,1120.32,-140.041,331.673,1192.75,-129.681,228.998,1180.74,23.51,493.547,851.126,51.2047,458.285,654.931,-14.624,455.762,490.247,-71.7796,385.454,244.587,-137.533,334.927,204.659,76.0444,381.442,193.932,109.922,113.906,841.571,178.332,147.969,667.864,43.8747,128.396,509.045,-105.727,156.931,356.344,-191.107,189.341,363.548,-28.305,177.564,233.081
281,0,64.5874,433.069,1135.66,70.8055,163.598,1124.12,-140.764,331.949,1196.02,-130.448,228.934,1184.4,18.9218,492.331,852.685,41.5148,456.979,655.86,-25.5756,454.92,491.444,-83.467,385.112,245.903,-149.313,334.824,206.386,64.1317,381.114,193.753,113.343,114.161,847.168,182.373,149.054,673.782,54.3936,129.083,508.763,-86.7441,157.097,347.982,-172.61,189.408,349.983,-1.3881,176.711,230.781
282,0,63.3616,432.777,1137.45,70.335,163.523,1128.05,-141.449,332.152,1199.35,-131.147,228.838,1188.16,14.1607,491.072,854.324,31.6623,455.631,657.012,-36.6751,454.029,492.888,-95.2444,384.756,247.433,-161.183,334.723,208.364,52.1049,380.785,193.585,116.649,114.319,852.932,185.321,149.856,679.434,64.5306,129.643,508.236,-67.2342,157.394,339.432,-153.158,189.82,336.128,25.7699,175.669,228.606
283,0,62.1887,432.461,1139.31,69.9822,163.418,1132.04,-142.088,332.241,1202.7,-131.755,228.685,1191.94,9.14756,489.776,855.988,21.6949,454.278,658.368,-47.8696,453.108,494.57,-107.097,384.393,249.181,-173.133,334.62,210.606,39.9558,380.461,193.412,119.77,114.381,858.746,187.183,150.352,684.72,74.2711,130.062,507.483,-47.2684,157.829,330.886,-132.819,190.569,322.253,53.0209,174.568,226.605
284,0,61.074,432.133,1141.23,69.7644,163.289,1136.05,-142.672,332.179,1206.01,-132.251,228.451,1195.68,3.85084,488.448,857.643,11.67,452.953,659.901,-59.1014,452.17,496.477,-119.008,384.025,251.144,-185.15,334.508,213.121,27.677,380.144,193.218,122.623,114.337,864.484,187.99,150.528,689.553,83.6004,130.331,506.525,-26.9467,158.401,322.532,-111.705,191.621,308.623,80.192,173.548,224.836
285,0,60.0237,431.804,1143.18,69.697,163.146,1140.02,-143.189,331.938,1209.24,-132.614,228.111,1199.32,-1.71057,487.098,859.273,1.65634,451.683,661.585,-70.3069,451.232,498.59,-130.959,383.657,253.318,-197.22,334.383,215.915,15.2629,379.835,192.993,125.12,114.174,870.012,187.799,150.381,693.861,92.5022,130.451,505.393,-6.39951,159.099,314.542,-89.9773,192.93,295.491,107.091,172.738,223.369
286,0,59.0455,431.48,1145.15,69.7928,162.995,1143.9,-143.624,331.496,1212.33,-132.825,227.644,1202.8,-7.47122,485.735,860.874,-8.26626,450.485,663.389,-81.418,450.303,500.885,-142.931,383.29,255.696,-209.328,334.244,218.987,2.71028,379.534,192.731,127.17,113.865,875.198,186.688,149.922,697.591,100.958,130.425,504.116,14.2121,159.906,307.068,-67.8382,194.431,283.081,133.51,172.237,222.287
287,0,58.1485,431.167,1147.11,70.0614,162.847,1147.63,-143.963,330.843,1215.25,-132.869,227.032,1206.08,-13.3289,484.371,862.45,-18.0068,449.371,665.278,-92.3619,449.396,503.334,-154.905,382.927,258.27,-221.456,334.091,222.335,-9.98217,379.239,192.431,128.693,113.38,879.917,184.759,149.175,700.708,108.945,130.263,502.726,34.6982,160.793,300.235,-45.5328,196.056,271.582,159.235,172.101,221.685
288,0,57.3433,430.863,1149.05,70.5092,162.706,1151.16,-144.19,329.974,1217.97,-132.733,226.263,1209.11,-19.1574,483.019,864.005,-27.4642,448.344,667.214,-103.062,448.52,505.904,-166.86,382.571,261.031,-233.588,333.926,225.954,-22.8129,378.946,192.1,129.623,112.682,884.055,182.13,148.172,703.196,116.439,129.98,501.253,54.8435,161.731,294.13,-23.3406,197.729,261.135,184.043,172.338,221.652
289,0,56.6411,430.566,1150.94,71.1384,162.577,1154.46,-144.291,328.895,1220.44,-132.412,225.328,1211.85,-24.8211,481.688,865.543,-36.5294,447.404,669.154,-113.44,447.683,508.558,-178.774,382.225,263.967,-245.707,333.757,229.838,-35.7778,378.653,191.745,129.92,111.74,887.518,178.934,146.956,705.056,123.411,129.596,499.723,74.4128,162.684,288.805,-1.56729,199.378,251.833,207.715,172.917,222.257
290,0,56.0535,430.268,1152.76,71.9472,162.46,1157.47,-144.256,327.618,1222.64,-131.903,224.222,1214.26,-30.1869,480.39,867.058,-45.0874,446.545,671.05,-123.414,446.893,511.254,-190.624,381.896,267.07,-257.796,333.59,233.981,-48.8697,378.354,191.381,129.573,110.53,890.233,175.316,145.578,706.307,129.83,129.135,498.158,93.1581,163.618,284.267,19.4646,200.936,243.711,230.033,173.771,223.526
291,0,55.5918,429.958,1154.48,72.9293,162.35,1160.16,-144.075,326.16,1224.53,-131.21,222.947,1216.3,-35.1344,479.13,868.535,-53.0204,445.762,672.851,-132.903,446.161,513.951,-202.385,381.59,270.331,-269.837,333.437,238.379,-62.0784,378.046,191.019,128.608,109.046,892.157,171.423,144.093,706.981,135.664,128.622,496.573,110.826,164.502,280.488,39.426,202.346,236.757,250.787,174.82,225.428
292,0,55.266,429.621,1156.07,74.0742,162.238,1162.49,-143.744,324.545,1226.1,-130.345,221.511,1217.96,-39.5618,477.914,869.949,-60.2117,445.051,674.502,-141.826,445.494,516.605,-214.027,381.319,273.741,-281.81,333.311,243.031,-75.3903,377.721,190.673,127.085,107.302,893.277,167.404,142.556,707.121,140.88,128.085,494.975,127.167,165.313,277.399,57.9924,203.566,230.908,269.779,175.981,227.855
293,0,55.0843,429.24,1157.5,75.3668,162.111,1164.43,-143.266,322.799,1227.3,-129.323,219.923,1219.22,-43.3882,476.743,871.26,-66.5491,444.408,675.945,-150.104,444.904,519.171,-225.51,381.092,277.29,-293.684,333.227,247.938,-88.7888,377.375,190.352,125.1,105.338,893.607,163.403,141.024,706.78,145.449,127.55,493.366,141.944,166.034,274.904,74.8543,204.568,226.069,286.823,177.183,230.629
294,0,55.0517,428.798,1158.72,76.7883,161.949,1165.94,-142.645,320.949,1228.13,-128.166,218.201,1220.05,-46.5528,475.62,872.419,-71.9291,443.836,677.122,-157.659,444.404,521.608,-236.79,380.924,280.971,-305.421,333.2,253.104,-102.255,377,190.061,122.777,103.218,893.196,159.552,139.548,706.016,149.342,127.042,491.741,154.94,166.659,272.882,89.7276,205.343,222.113,301.749,178.378,233.499
295,0,55.1698,428.273,1159.7,78.316,161.73,1167.01,-141.896,319.026,1228.55,-126.902,216.363,1220.46,-49.011,474.547,873.367,-76.2608,443.342,677.973,-164.418,444.006,523.876,-247.805,380.828,284.773,-316.965,333.247,258.537,-115.766,376.593,189.797,120.264,101.026,892.114,155.97,138.173,704.886,152.536,126.585,490.088,165.968,167.194,271.204,102.364,205.899,218.9,314.407,179.541,236.17
296,0,55.4362,427.648,1160.39,79.9242,161.428,1167.63,-141.037,317.057,1228.54,-125.561,214.431,1220.42,-50.7309,473.526,874.038,-79.4688,442.938,678.445,-170.313,443.726,525.94,-258.483,380.819,288.686,-328.243,333.384,264.25,-129.302,376.15,189.55,117.722,98.8602,890.455,152.755,136.934,703.45,155.015,126.197,488.396,174.877,167.651,269.737,112.56,206.26,216.288,324.669,180.668,238.327
297,0,55.8436,426.903,1160.77,81.5846,161.016,1167.78,-140.091,315.069,1228.1,-124.178,212.429,1219.95,-51.688,472.564,874.361,-81.4964,442.641,678.487,-175.281,443.58,527.774,-268.734,380.911,292.701,-339.158,333.627,270.261,-142.839,375.671,189.306,115.313,96.8191,888.329,149.985,135.856,701.76,156.77,125.89,486.648,181.56,168.05,268.358,120.166,206.464,214.143,332.433,181.772,239.675
298,0,56.3798,426.023,1160.8,83.2671,160.468,1167.47,-139.087,313.086,1227.21,-122.789,210.385,1219.06,-51.8624,471.668,874.268,-82.307,442.472,678.057,-179.264,443.584,529.357,-278.453,381.12,296.813,-349.588,333.991,276.593,-156.359,375.159,189.047,113.187,94.9926,885.855,147.712,134.95,699.867,157.796,125.672,484.828,185.956,168.418,266.963,125.093,206.553,212.346,337.63,182.875,239.975
299,0,57.0277,424.997,1160.44,84.9401,159.758,1166.7,-138.057,311.13,1225.85,-121.432,208.324,1217.76,-51.236,470.847,873.7,-81.8849,442.455,677.127,-182.213,443.755,530.678,-287.521,381.457,301.018,-359.392,334.49,283.274,-169.84,374.62,188.758,111.472,93.4491,883.151,145.964,134.216,697.811,158.101,125.543,482.925,188.057,168.778,265.475,127.32,206.577,210.803,340.233,183.995,239.078
300,0,57.7657,423.816,1159.69,86.572,158.863,1165.5,-137.033,309.221,1224.05,-120.144,206.274,1216.07,-49.793,470.113,872.608,-80.2356,442.612,675.681,-184.084,444.105,531.739,-295.811,381.937,305.322,-368.408,335.135,290.339,-183.26,374.062,188.434,110.262,92.2268,880.328,144.741,133.64,695.629,157.696,125.498,480.927,187.905,169.153,263.842,126.895,206.579,209.444,340.263,185.146,236.95
301,0,58.5676,422.477,1158.52,88.131,157.769,1163.9,-136.052,307.372,1221.82,-118.96,204.259,1214.03,-47.5216,469.474,870.967,-77.3839,442.961,673.722,-184.844,444.648,532.548,-303.189,382.569,309.737,-376.462,335.935,297.823,-196.591,373.494,188.087,109.609,91.3275,877.484,144.017,133.198,693.347,156.602,125.523,478.83,185.595,169.558,262.048,123.937,206.594,208.225,337.802,186.328,233.678
302,0,59.4041,420.983,1156.94,89.5866,156.464,1161.92,-135.146,305.597,1219.17,-117.912,202.303,1211.67,-44.4177,468.937,868.775,-73.3728,443.516,671.272,-184.469,445.391,533.127,-309.527,383.36,314.283,-383.382,336.895,305.76,-209.791,372.922,187.756,109.516,90.7156,874.696,143.744,132.855,690.987,154.843,125.601,476.634,181.268,170.002,260.101,118.631,206.646,207.123,332.994,187.527,229.461
