Trajectories
100
,,Subj:LASI,,,Subj:RASI,,,Subj:LPSI,,,Subj:RPSI,,,Subj:LTHI,,,Subj:LKNE,,,Subj:LTIB,,,Subj:LANK,,,Subj:LHEE,,,Subj:LTOE,,,Subj:RTHI,,,Subj:RKNE,,,Subj:RTIB,,,Subj:RANK,,,Subj:RHEE,,,Subj:RTOE,,,
Frame,Sub Frame,X,Y,Z,X,Y,Z,X,Y,Z,X,Y,Z,X,Y,Z,X,Y,Z,X,Y,Z,X,Y,Z,X,Y,Z,X,Y,Z,X,Y,Z,X,Y,Z,X,Y,Z,X,Y,Z,X,Y,Z,X,Y,Z
,,mm,mm,mm,mm,mm,mm,mm,mm,mm,mm,mm,mm,mm,mm,mm,mm,mm,mm,mm,mm,mm,mm,mm,mm,mm,mm,mm,mm,mm,mm,mm,mm,mm,mm,mm,mm,mm,mm,mm,mm,mm,mm,mm,mm,mm,mm,mm,mm
1,0,93.6447,421.062,1161.43,114.359,140.604,1155.38,-114.854,312.495,1196.76,-102.623,210.502,1192.19,24.9677,479.974,870.425,5.88898,451.771,671.017,-7.00229,451.924,467.767,-9.95777,397.562,241.342,-67.9219,347.754,189.047,148.718,394.748,195.655,53.9701,94.1461,862.822,19.9572,125.366,670.196,-18.5585,122.296,463.191,-14.7017,173.773,219.929,-73.942,231.933,194.191,132.257,168.357,197.641
2,0,93.6785,421.123,1161.42,114.361,140.66,1155.38,-114.832,312.587,1196.79,-102.6,210.588,1192.21,24.9982,480.021,870.412,5.96986,451.792,671.012,-6.95105,451.935,467.761,-9.94828,397.562,241.338,-67.9314,347.759,189.062,148.722,394.745,195.653,54.0316,94.1734,862.818,20.0042,125.388,670.196,-18.5334,122.314,463.198,-14.7005,173.776,219.931,-73.9429,231.934,194.193,132.258,168.359,197.641
3,0,93.7133,421.184,1161.41,114.364,140.715,1155.38,-114.81,312.678,1196.82,-102.576,210.672,1192.23,25.0294,480.069,870.399,6.0503,451.814,671.006,-6.90012,451.946,467.756,-9.93885,397.561,241.335,-67.9408,347.764,189.076,148.725,394.742,195.651,54.093,94.2004,862.814,20.0508,125.409,670.195,-18.5086,122.332,463.204,-14.6993,173.78,219.933,-73.9438,231.935,194.195,132.258,168.36,197.641
4,0,93.7493,421.244,1161.4,114.368,140.77,1155.38,-114.787,312.768,1196.84,-102.552,210.756,1192.24,25.0612,480.116,870.386,6.13027,451.835,671,-6.84949,451.957,467.75,-9.92947,397.561,241.331,-67.95,347.77,189.091,148.728,394.739,195.649,54.1541,94.2272,862.809,20.0972,125.43,670.195,-18.4838,122.349,463.21,-14.6981,173.783,219.935,-73.9447,231.936,194.197,132.259,168.362,197.64
5,0,93.7863,421.303,1161.39,114.374,140.823,1155.37,-114.763,312.857,1196.87,-102.526,210.839,1192.26,25.0936,480.162,870.373,6.20979,451.855,670.994,-6.79918,451.969,467.744,-9.92015,397.56,241.328,-67.9592,347.775,189.105,148.732,394.736,195.647,54.2149,94.2537,862.805,20.1434,125.45,670.195,-18.4592,122.367,463.216,-14.697,173.787,219.937,-73.9456,231.938,194.198,132.26,168.363,197.64
6,0,93.8243,421.362,1161.38,114.381,140.876,1155.37,-114.737,312.945,1196.89,-102.499,210.921,1192.28,25.1266,480.207,870.361,6.28886,451.876,670.989,-6.74917,451.979,467.739,-9.91088,397.559,241.324,-67.9684,347.779,189.119,148.735,394.733,195.645,54.2756,94.2799,862.801,20.1892,125.471,670.194,-18.4348,122.384,463.222,-14.6958,173.79,219.939,-73.9466,231.939,194.2,132.26,168.365,197.64
7,0,93.8634,421.42,1161.37,114.389,140.929,1155.37,-114.711,313.033,1196.92,-102.472,211.002,1192.29,25.1602,480.253,870.349,6.36747,451.896,670.983,-6.69947,451.99,467.734,-9.90166,397.559,241.321,-67.9774,347.784,189.133,148.739,394.73,195.643,54.336,94.3059,862.797,20.2349,125.491,670.194,-18.4105,122.402,463.228,-14.6946,173.793,219.941,-73.9476,231.94,194.202,132.261,168.366,197.64
8,0,93.9036,421.477,1161.35,114.398,140.981,1155.36,-114.683,313.119,1196.95,-102.443,211.082,1192.31,25.1944,480.297,870.336,6.44563,451.917,670.978,-6.65007,452.001,467.728,-9.8925,397.558,241.317,-67.9863,347.789,189.147,148.742,394.728,195.641,54.3961,94.3317,862.792,20.2802,125.512,670.193,-18.3863,122.419,463.233,-14.6935,173.797,219.943,-73.9486,231.941,194.204,132.262,168.368,197.639
9,0,93.9448,421.534,1161.34,114.409,141.032,1155.36,-114.655,313.204,1196.97,-102.413,211.161,1192.33,25.2293,480.341,870.324,6.52333,451.937,670.972,-6.60099,452.011,467.723,-9.8834,397.558,241.314,-67.9952,347.794,189.161,148.745,394.725,195.639,54.4561,94.3572,862.788,20.3253,125.532,670.193,-18.3623,122.436,463.239,-14.6923,173.8,219.945,-73.9496,231.942,194.206,132.262,168.369,197.639
10,0,93.987,421.589,1161.33,114.421,141.082,1155.36,-114.626,313.288,1197,-102.382,211.238,1192.34,25.2647,480.384,870.312,6.60057,451.956,670.967,-6.55221,452.022,467.718,-9.87435,397.557,241.311,-68.004,347.799,189.175,148.748,394.722,195.638,54.5158,94.3825,862.784,20.3701,125.552,670.192,-18.3385,122.453,463.245,-14.6912,173.803,219.947,-73.9506,231.944,194.208,132.263,168.37,197.639
11,0,94.0303,421.644,1161.32,114.435,141.132,1155.35,-114.595,313.371,1197.02,-102.35,211.315,1192.36,25.3008,480.427,870.301,6.67736,451.976,670.961,-6.50374,452.032,467.712,-9.86535,397.557,241.307,-68.0127,347.803,189.188,148.752,394.719,195.636,54.5753,94.4075,862.779,20.4147,125.571,670.192,-18.3148,122.47,463.251,-14.69,173.807,219.948,-73.9517,231.945,194.21,132.264,168.372,197.639
12,0,94.0747,421.699,1161.31,114.449,141.181,1155.35,-114.563,313.453,1197.05,-102.317,211.391,1192.37,25.3374,480.47,870.289,6.75369,451.995,670.956,-6.45558,452.042,467.707,-9.85641,397.556,241.304,-68.0213,347.808,189.202,148.755,394.716,195.634,54.6345,94.4323,862.775,20.459,125.591,670.191,-18.2912,122.487,463.257,-14.6889,173.81,219.95,-73.9528,231.946,194.212,132.264,168.373,197.638
13,0,94.1201,421.752,1161.3,114.465,141.229,1155.34,-114.531,313.534,1197.07,-102.283,211.466,1192.39,25.3747,480.511,870.278,6.82957,452.014,670.951,-6.40773,452.053,467.702,-9.84752,397.555,241.301,-68.0298,347.813,189.215,148.758,394.714,195.632,54.6935,94.4568,862.771,20.5031,125.61,670.191,-18.2678,122.503,463.262,-14.6878,173.813,219.952,-73.9538,231.947,194.214,132.265,168.375,197.638
14,0,94.1666,421.805,1161.29,114.483,141.277,1155.34,-114.497,313.614,1197.1,-102.248,211.541,1192.41,25.4126,480.553,870.267,6.90499,452.033,670.946,-6.36018,452.063,467.697,-9.83869,397.555,241.298,-68.0383,347.817,189.229,148.761,394.711,195.63,54.7523,94.4811,862.766,20.5469,125.629,670.19,-18.2445,122.52,463.268,-14.6867,173.816,219.954,-73.955,231.948,194.216,132.266,168.376,197.638
15,0,94.2141,421.857,1161.28,114.501,141.324,1155.34,-114.463,313.694,1197.12,-102.212,211.614,1192.42,25.451,480.593,870.256,6.97996,452.052,670.94,-6.31295,452.072,467.692,-9.82991,397.554,241.295,-68.0466,347.822,189.242,148.765,394.708,195.628,54.8108,94.5051,862.762,20.5904,125.648,670.19,-18.2213,122.536,463.273,-14.6856,173.82,219.956,-73.9561,231.949,194.217,132.266,168.377,197.638
16,0,94.2627,421.909,1161.27,114.521,141.37,1155.33,-114.427,313.772,1197.14,-102.175,211.686,1192.44,25.4901,480.633,870.245,7.05447,452.07,670.935,-6.26602,452.082,467.687,-9.82119,397.553,241.291,-68.0549,347.826,189.255,148.768,394.705,195.627,54.8691,94.5288,862.758,20.6337,125.667,670.189,-18.1983,122.553,463.279,-14.6845,173.823,219.958,-73.9572,231.95,194.219,132.267,168.379,197.637
17,0,94.3123,421.96,1161.26,114.542,141.415,1155.33,-114.39,313.849,1197.17,-102.137,211.757,1192.45,25.5298,480.673,870.234,7.12852,452.088,670.93,-6.2194,452.092,467.682,-9.81252,397.553,241.288,-68.0631,347.831,189.268,148.771,394.703,195.625,54.9272,94.5524,862.753,20.6767,125.685,670.189,-18.1755,122.569,463.284,-14.6834,173.826,219.96,-73.9583,231.951,194.221,132.267,168.38,197.637
18,0,94.363,422.009,1161.25,114.565,141.46,1155.32,-114.353,313.925,1197.19,-102.098,211.827,1192.47,25.5701,480.712,870.224,7.20212,452.106,670.925,-6.17308,452.101,467.677,-9.80391,397.552,241.285,-68.0712,347.835,189.281,148.774,394.7,195.623,54.9851,94.5756,862.749,20.7195,125.704,670.188,-18.1528,122.585,463.29,-14.6823,173.829,219.961,-73.9595,231.952,194.223,132.268,168.381,197.637
19,0,94.4148,422.059,1161.24,114.588,141.505,1155.32,-114.314,314,1197.22,-102.057,211.896,1192.48,25.611,480.75,870.214,7.27527,452.124,670.92,-6.12708,452.111,467.672,-9.79535,397.551,241.282,-68.0792,347.84,189.294,148.777,394.697,195.621,55.0427,94.5986,862.744,20.762,125.722,670.188,-18.1302,122.601,463.295,-14.6812,173.832,219.963,-73.9607,231.953,194.225,132.269,168.383,197.637
20,0,94.4675,422.107,1161.23,114.614,141.548,1155.31,-114.274,314.074,1197.24,-102.016,211.964,1192.49,25.6526,480.788,870.203,7.34796,452.142,670.915,-6.08138,452.12,467.667,-9.78685,397.551,241.279,-68.0871,347.844,189.306,148.78,394.695,195.62,55.1001,94.6214,862.74,20.8042,125.74,670.187,-18.1078,122.616,463.301,-14.6802,173.835,219.965,-73.9619,231.954,194.227,132.269,168.384,197.636
21,0,94.5213,422.155,1161.22,114.64,141.591,1155.3,-114.233,314.148,1197.26,-101.974,212.031,1192.51,25.6947,480.825,870.193,7.42019,452.159,670.91,-6.03599,452.129,467.662,-9.7784,397.55,241.276,-68.095,347.848,189.319,148.783,394.692,195.618,55.1572,94.6439,862.736,20.8462,125.758,670.186,-18.0855,122.632,463.306,-14.6791,173.838,219.967,-73.9631,231.955,194.229,132.27,168.385,197.636
22,0,94.5762,422.202,1161.2,114.667,141.633,1155.3,-114.191,314.22,1197.29,-101.93,212.098,1192.52,25.7374,480.862,870.184,7.49197,452.176,670.905,-5.99091,452.138,467.658,-9.77001,397.549,241.273,-68.1027,347.852,189.331,148.786,394.689,195.616,55.2141,94.6662,862.731,20.8879,125.776,670.186,-18.0634,122.647,463.311,-14.678,173.841,219.968,-73.9643,231.956,194.231,132.271,168.387,197.636
23,0,94.6321,422.249,1161.19,114.696,141.675,1155.29,-114.149,314.291,1197.31,-101.886,212.163,1192.54,25.7807,480.898,870.174,7.56329,452.193,670.901,-5.94614,452.147,467.653,-9.76167,397.549,241.27,-68.1104,347.856,189.344,148.789,394.687,195.615,55.2708,94.6882,862.727,20.9294,125.793,670.185,-18.0414,122.663,463.317,-14.677,173.844,219.97,-73.9656,231.957,194.233,132.271,168.388,197.636
24,0,94.689,422.294,1161.18,114.727,141.716,1155.29,-114.105,314.361,1197.33,-101.841,212.227,1192.55,25.8247,480.934,870.164,7.63415,452.21,670.896,-5.90167,452.156,467.648,-9.75338,397.548,241.267,-68.118,347.86,189.356,148.792,394.684,195.613,55.3273,94.71,862.722,20.9706,125.811,670.184,-18.0196,122.678,463.322,-14.676,173.847,219.972,-73.9669,231.958,194.234,132.272,168.389,197.635
25,0,94.747,422.339,1161.17,114.758,141.756,1155.28,-114.06,314.43,1197.35,-101.794,212.291,1192.56,25.8692,480.969,870.155,7.70456,452.226,670.891,-5.85752,452.165,467.644,-9.74515,397.547,241.264,-68.1255,347.865,189.368,148.795,394.682,195.611,55.3835,94.7315,862.718,21.0115,125.828,670.184,-17.9979,122.693,463.327,-14.6749,173.85,219.974,-73.9681,231.958,194.236,132.272,168.391,197.635
26,0,94.806,422.383,1161.16,114.791,141.796,1155.27,-114.014,314.499,1197.38,-101.747,212.353,1192.58,25.9143,481.003,870.146,7.77452,452.243,670.887,-5.81367,452.174,467.639,-9.73698,397.547,241.261,-68.133,347.868,189.38,148.798,394.679,195.61,55.4395,94.7528,862.713,21.0522,125.845,670.183,-17.9763,122.708,463.332,-14.6739,173.853,219.975,-73.9694,231.959,194.238,132.273,168.392,197.635
27,0,94.866,422.427,1161.15,114.825,141.834,1155.27,-113.967,314.566,1197.4,-101.699,212.414,1192.59,25.96,481.037,870.137,7.84401,452.259,670.882,-5.77012,452.182,467.635,-9.72886,397.546,241.258,-68.1403,347.872,189.392,148.801,394.676,195.608,55.4952,94.7738,862.709,21.0926,125.861,670.182,-17.9549,122.723,463.337,-14.6729,173.856,219.977,-73.9707,231.96,194.24,132.274,168.393,197.635
28,0,94.9271,422.47,1161.14,114.86,141.873,1155.26,-113.919,314.632,1197.42,-101.649,212.475,1192.6,26.0063,481.071,870.128,7.91306,452.274,670.878,-5.72689,452.191,467.63,-9.72079,397.545,241.256,-68.1476,347.876,189.403,148.804,394.674,195.606,55.5507,94.7946,862.704,21.1328,125.878,670.182,-17.9337,122.738,463.342,-14.6719,173.859,219.979,-73.9721,231.961,194.242,132.274,168.394,197.634
29,0,94.9891,422.512,1161.13,114.897,141.91,1155.25,-113.87,314.697,1197.44,-101.599,212.534,1192.62,26.0532,481.103,870.119,7.98164,452.29,670.873,-5.68397,452.199,467.626,-9.71278,397.544,241.253,-68.1548,347.88,189.415,148.807,394.671,195.605,55.606,94.8151,862.7,21.1727,125.895,670.181,-17.9125,122.753,463.347,-14.6709,173.862,219.98,-73.9734,231.962,194.244,132.275,168.396,197.634
30,0,95.0522,422.553,1161.12,114.934,141.947,1155.24,-113.82,314.762,1197.46,-101.547,212.592,1192.63,26.1007,481.136,870.111,8.04977,452.305,670.869,-5.64135,452.207,467.622,-9.70482,397.544,241.25,-68.1618,347.884,189.427,148.81,394.669,195.603,55.6611,94.8354,862.695,21.2123,125.911,670.18,-17.8916,122.767,463.352,-14.6699,173.865,219.982,-73.9748,231.962,194.246,132.275,168.397,197.634
31,0,95.1163,422.594,1161.11,114.974,141.983,1155.24,-113.77,314.825,1197.49,-101.495,212.65,1192.64,26.1488,481.167,870.103,8.11744,452.321,670.864,-5.59904,452.215,467.617,-9.69692,397.543,241.247,-68.1688,347.888,189.438,148.813,394.667,195.601,55.7159,94.8554,862.69,21.2517,125.927,670.179,-17.8708,122.782,463.357,-14.6689,173.867,219.984,-73.9762,231.963,194.248,132.276,168.398,197.634
32,0,95.1814,422.634,1161.1,115.014,142.019,1155.23,-113.718,314.887,1197.51,-101.441,212.706,1192.65,26.1975,481.199,870.094,8.18466,452.336,670.86,-5.55704,452.223,467.613,-9.68907,397.542,241.245,-68.1758,347.892,189.449,148.815,394.664,195.6,55.7705,94.8751,862.686,21.2908,125.943,670.179,-17.8501,122.796,463.362,-14.668,173.87,219.985,-73.9776,231.964,194.249,132.276,168.399,197.633
33,0,95.2474,422.673,1161.09,115.055,142.053,1155.22,-113.665,314.948,1197.53,-101.387,212.762,1192.67,26.2467,481.229,870.086,8.25142,452.35,670.856,-5.51535,452.231,467.609,-9.68128,397.541,241.242,-68.1826,347.895,189.46,148.818,394.662,195.598,55.8248,94.8946,862.681,21.3297,125.959,670.178,-17.8295,122.81,463.366,-14.667,173.873,219.987,-73.979,231.965,194.251,132.277,168.401,197.633
34,0,95.3145,422.711,1161.08,115.098,142.088,1155.21,-113.611,315.009,1197.55,-101.331,212.816,1192.68,26.2965,481.259,870.079,8.31772,452.365,670.851,-5.47396,452.239,467.605,-9.67354,397.54,241.239,-68.1894,347.899,189.472,148.821,394.659,195.597,55.8789,94.9139,862.677,21.3683,125.974,670.177,-17.8091,122.824,463.371,-14.666,173.876,219.988,-73.9804,231.965,194.253,132.278,168.402,197.633
35,0,95.3825,422.749,1161.06,115.142,142.121,1155.21,-113.556,315.068,1197.57,-101.275,212.87,1192.69,26.3469,481.289,870.071,8.38357,452.379,670.847,-5.43288,452.246,467.601,-9.66586,397.54,241.236,-68.196,347.902,189.482,148.824,394.657,195.595,55.9328,94.933,862.672,21.4066,125.989,670.176,-17.7889,122.838,463.376,-14.6651,173.878,219.99,-73.9818,231.966,194.255,132.278,168.403,197.632
36,0,95.4515,422.786,1161.05,115.187,142.154,1155.2,-113.5,315.126,1197.59,-101.218,212.923,1192.7,26.3979,481.318,870.063,8.44896,452.393,670.843,-5.39212,452.254,467.596,-9.65823,397.539,241.234,-68.2026,347.906,189.493,148.827,394.655,195.594,55.9865,94.9517,862.667,21.4447,126.005,670.175,-17.7688,122.852,463.381,-14.6641,173.881,219.991,-73.9833,231.967,194.257,132.279,168.404,197.632
37,0,95.5214,422.822,1161.04,115.234,142.186,1155.19,-113.444,315.183,1197.61,-101.159,212.974,1192.71,26.4494,481.346,870.056,8.51389,452.407,670.839,-5.35165,452.261,467.592,-9.65066,397.538,241.231,-68.2091,347.909,189.504,148.829,394.652,195.592,56.0399,94.9702,862.663,21.4825,126.02,670.175,-17.7488,122.865,463.385,-14.6632,173.884,219.993,-73.9848,231.967,194.259,132.279,168.406,197.632
38,0,95.5923,422.858,1161.03,115.282,142.217,1155.18,-113.386,315.24,1197.63,-101.1,213.025,1192.72,26.5015,481.374,870.049,8.57837,452.421,670.835,-5.3115,452.269,467.588,-9.64314,397.537,241.229,-68.2155,347.913,189.515,148.832,394.65,195.591,56.0931,94.9885,862.658,21.5201,126.034,670.174,-17.729,122.879,463.39,-14.6623,173.886,219.994,-73.9863,231.968,194.261,132.28,168.407,197.632
39,0,95.6641,422.893,1161.02,115.33,142.248,1155.17,-113.328,315.295,1197.65,-101.04,213.074,1192.74,26.5542,481.401,870.042,8.64238,452.434,670.831,-5.27166,452.276,467.585,-9.63568,397.536,241.226,-68.2219,347.916,189.525,148.835,394.647,195.589,56.146,95.0065,862.653,21.5574,126.049,670.173,-17.7093,122.892,463.394,-14.6614,173.889,219.996,-73.9878,231.968,194.262,132.28,168.408,197.631
40,0,95.7369,422.927,1161.01,115.38,142.278,1155.16,-113.268,315.349,1197.67,-100.979,213.123,1192.75,26.6074,481.428,870.035,8.70595,452.447,670.827,-5.23212,452.283,467.581,-9.62827,397.536,241.224,-68.2281,347.919,189.536,148.837,394.645,195.588,56.1987,95.0243,862.649,21.5944,126.064,670.172,-17.6898,122.906,463.399,-14.6605,173.892,219.997,-73.9893,231.969,194.264,132.281,168.409,197.631
41,0,95.8106,422.96,1161,115.432,142.308,1155.15,-113.208,315.403,1197.69,-100.917,213.171,1192.76,26.6611,481.454,870.028,8.76905,452.46,670.823,-5.19289,452.29,467.577,-9.62091,397.535,241.221,-68.2343,347.923,189.546,148.84,394.643,195.586,56.2512,95.0418,862.644,21.6312,126.078,670.171,-17.6704,122.919,463.403,-14.6595,173.894,219.999,-73.9909,231.97,194.266,132.281,168.41,197.631
42,0,95.8851,422.993,1160.99,115.484,142.336,1155.14,-113.146,315.455,1197.71,-100.854,213.218,1192.77,26.7154,481.48,870.022,8.83169,452.473,670.819,-5.15397,452.297,467.573,-9.61361,397.534,241.219,-68.2404,347.926,189.556,148.843,394.641,195.585,56.3034,95.0591,862.639,21.6677,126.092,670.17,-17.6512,122.932,463.408,-14.6587,173.897,220,-73.9924,231.97,194.268,132.282,168.411,197.631
43,0,95.9606,423.025,1160.98,115.538,142.364,1155.13,-113.084,315.506,1197.73,-100.79,213.264,1192.78,26.7702,481.505,870.015,8.89387,452.486,670.815,-5.11536,452.303,467.569,-9.60637,397.533,241.216,-68.2464,347.929,189.566,148.845,394.638,195.584,56.3554,95.0761,862.634,21.704,126.106,670.17,-17.6321,122.945,463.412,-14.6578,173.899,220.002,-73.994,231.971,194.27,132.283,168.413,197.63
44,0,96.0369,423.057,1160.97,115.592,142.392,1155.12,-113.021,315.557,1197.75,-100.725,213.308,1192.79,26.8255,481.529,870.009,8.9556,452.498,670.812,-5.07705,452.31,467.566,-9.59918,397.532,241.214,-68.2523,347.932,189.576,148.848,394.636,195.582,56.4072,95.0929,862.63,21.74,126.12,670.169,-17.6132,122.958,463.416,-14.6569,173.902,220.003,-73.9956,231.971,194.272,132.283,168.414,197.63
45,0,96.1141,423.087,1160.96,115.648,142.419,1155.11,-112.957,315.606,1197.77,-100.659,213.352,1192.8,26.8814,481.553,870.003,9.01687,452.51,670.808,-5.03906,452.316,467.562,-9.59204,397.531,241.212,-68.2581,347.935,189.586,148.85,394.634,195.581,56.4587,95.1095,862.625,21.7757,126.133,670.168,-17.5944,122.97,463.421,-14.656,173.904,220.005,-73.9972,231.972,194.274,132.284,168.415,197.63
46,0,96.1922,423.117,1160.95,115.705,142.445,1155.1,-112.892,315.654,1197.79,-100.593,213.395,1192.81,26.9378,481.576,869.997,9.07768,452.522,670.804,-5.00137,452.323,467.558,-9.58496,397.531,241.209,-68.2638,347.938,189.596,148.853,394.632,195.579,56.51,95.1257,862.62,21.8112,126.147,670.167,-17.5757,122.983,463.425,-14.6551,173.907,220.006,-73.9989,231.972,194.275,132.284,168.416,197.63
47,0,96.271,423.146,1160.94,115.763,142.47,1155.09,-112.826,315.702,1197.81,-100.525,213.437,1192.82,26.9946,481.599,869.991,9.13803,452.534,670.801,-4.96399,452.329,467.555,-9.57793,397.53,241.207,-68.2695,347.941,189.605,148.856,394.63,195.578,56.5611,95.1418,862.615,21.8464,126.16,670.166,-17.5572,122.995,463.429,-14.6543,173.909,220.007,-74.0005,231.972,194.277,132.285,168.417,197.629
48,0,96.3507,423.175,1160.93,115.822,142.495,1155.08,-112.76,315.748,1197.83,-100.457,213.478,1192.83,27.052,481.622,869.986,9.19792,452.545,670.797,-4.92692,452.335,467.551,-9.57096,397.529,241.205,-68.2751,347.944,189.615,148.858,394.627,195.577,56.6119,95.1575,862.611,21.8814,126.173,670.165,-17.5388,123.008,463.433,-14.6534,173.912,220.009,-74.0022,231.973,194.279,132.285,168.418,197.629
49,0,96.4312,423.202,1160.91,115.882,142.519,1155.07,-112.692,315.794,1197.84,-100.388,213.518,1192.84,27.1098,481.643,869.98,9.25735,452.557,670.794,-4.89015,452.341,467.548,-9.56405,397.528,241.202,-68.2805,347.947,189.624,148.861,394.625,195.575,56.6624,95.1731,862.606,21.9161,126.186,670.164,-17.5206,123.02,463.437,-14.6526,173.914,220.01,-74.0038,231.973,194.281,132.286,168.419,197.629
50,0,96.5124,423.229,1160.9,115.943,142.542,1155.06,-112.624,315.838,1197.86,-100.318,213.557,1192.85,27.1682,481.665,869.975,9.31631,452.568,670.79,-4.8537,452.347,467.544,-9.55718,397.527,241.2,-68.2859,347.95,189.633,148.863,394.623,195.574,56.7128,95.1884,862.601,21.9505,126.198,670.163,-17.5025,123.032,463.441,-14.6518,173.916,220.011,-74.0055,231.974,194.283,132.286,168.42,197.628
51,0,96.5944,423.256,1160.89,116.006,142.565,1155.05,-112.555,315.882,1197.88,-100.248,213.595,1192.86,27.227,481.685,869.97,9.37482,452.579,670.787,-4.81755,452.353,467.541,-9.55038,397.526,241.198,-68.2913,347.953,189.643,148.865,394.621,195.573,56.7629,95.2034,862.596,21.9847,126.211,670.162,-17.4846,123.044,463.445,-14.6509,173.919,220.013,-74.0072,231.974,194.285,132.287,168.422,197.628
52,0,96.6771,423.281,1160.88,116.069,142.587,1155.04,-112.485,315.924,1197.9,-100.176,213.633,1192.86,27.2862,481.705,869.965,9.43287,452.589,670.783,-4.78171,452.359,467.538,-9.54362,397.525,241.196,-68.2965,347.956,189.652,148.868,394.619,195.571,56.8127,95.2182,862.591,22.0186,126.223,670.161,-17.4668,123.056,463.449,-14.6501,173.921,220.014,-74.009,231.974,194.286,132.287,168.423,197.628
53,0,96.7606,423.306,1160.87,116.133,142.609,1155.03,-112.415,315.965,1197.91,-100.104,213.669,1192.87,27.346,481.725,869.96,9.49046,452.6,670.78,-4.74618,452.364,467.534,-9.53693,397.524,241.193,-68.3017,347.958,189.661,148.87,394.617,195.57,56.8624,95.2328,862.586,22.0523,126.235,670.16,-17.4492,123.067,463.453,-14.6493,173.923,220.015,-74.0107,231.975,194.288,132.288,168.424,197.628
54,0,96.8447,423.331,1160.86,116.198,142.629,1155.02,-112.343,316.006,1197.93,-100.031,213.704,1192.88,27.4061,481.744,869.956,9.54758,452.61,670.777,-4.71095,452.37,467.531,-9.53028,397.523,241.191,-68.3067,347.961,189.67,148.873,394.615,195.569,56.9117,95.2471,862.582,22.0857,126.247,670.159,-17.4317,123.079,463.457,-14.6485,173.926,220.016,-74.0125,231.975,194.29,132.288,168.425,197.627
55,0,96.9295,423.354,1160.85,116.265,142.649,1155.01,-112.271,316.045,1197.95,-99.9573,213.738,1192.89,27.4667,481.763,869.951,9.60424,452.62,670.773,-4.67604,452.375,467.528,-9.52369,397.522,241.189,-68.3117,347.964,189.678,148.875,394.613,195.568,56.9609,95.2611,862.577,22.1188,126.259,670.158,-17.4143,123.09,463.461,-14.6477,173.928,220.018,-74.0143,231.975,194.292,132.289,168.426,197.627
56,0,97.015,423.377,1160.84,116.332,142.669,1155,-112.198,316.084,1197.97,-99.8829,213.772,1192.9,27.5277,481.781,869.947,9.66044,452.63,670.77,-4.64143,452.38,467.525,-9.51716,397.521,241.187,-68.3166,347.966,189.687,148.877,394.611,195.566,57.0098,95.2749,862.572,22.1517,126.271,670.157,-17.3971,123.102,463.465,-14.6469,173.93,220.019,-74.0161,231.975,194.294,132.289,168.427,197.627
57,0,97.1011,423.399,1160.83,116.4,142.688,1154.98,-112.125,316.121,1197.98,-99.8079,213.804,1192.91,27.5891,481.798,869.942,9.71617,452.639,670.767,-4.60713,452.385,467.522,-9.51068,397.52,241.185,-68.3214,347.969,189.695,148.88,394.609,195.565,57.0584,95.2885,862.567,22.1843,126.282,670.156,-17.38,123.113,463.468,-14.6461,173.932,220.02,-74.0179,231.976,194.296,132.29,168.428,197.627
58,0,97.1878,423.42,1160.82,116.469,142.706,1154.97,-112.051,316.158,1198,-99.7321,213.836,1192.91,27.6509,481.815,869.938,9.77145,452.648,670.764,-4.57314,452.39,467.518,-9.50426,397.52,241.183,-68.3262,347.971,189.704,148.882,394.607,195.564,57.1068,95.3018,862.562,22.2167,126.293,670.155,-17.3631,123.124,463.472,-14.6454,173.934,220.021,-74.0197,231.976,194.298,132.29,168.429,197.626
59,0,97.2751,423.441,1160.81,116.539,142.723,1154.96,-111.976,316.193,1198.01,-99.6557,213.866,1192.92,27.713,481.831,869.934,9.82625,452.658,670.761,-4.53946,452.395,467.516,-9.49788,397.519,241.181,-68.3308,347.974,189.712,148.884,394.605,195.563,57.155,95.3148,862.557,22.2488,126.304,670.154,-17.3463,123.135,463.476,-14.6446,173.936,220.023,-74.0215,231.976,194.299,132.291,168.43,197.626
60,0,97.3629,423.461,1160.8,116.609,142.74,1154.95,-111.901,316.228,1198.03,-99.5787,213.896,1192.93,27.7756,481.847,869.931,9.8806,452.667,670.758,-4.50608,452.4,467.513,-9.49157,397.518,241.179,-68.3354,347.976,189.72,148.887,394.603,195.562,57.2029,95.3277,862.552,22.2806,126.315,670.153,-17.3297,123.146,463.479,-14.6438,173.939,220.024,-74.0234,231.976,194.301,132.291,168.431,197.626
61,0,97.4512,423.481,1160.79,116.681,142.756,1154.94,-111.825,316.262,1198.05,-99.501,213.924,1192.93,27.8385,481.862,869.927,9.93448,452.675,670.755,-4.47302,452.405,467.51,-9.48531,397.517,241.177,-68.3398,347.978,189.728,148.889,394.601,195.56,57.2506,95.3402,862.547,22.3122,126.326,670.151,-17.3132,123.156,463.483,-14.6431,173.941,220.025,-74.0253,231.976,194.303,132.292,168.432,197.625
62,0,97.5401,423.499,1160.78,116.753,142.772,1154.93,-111.748,316.294,1198.06,-99.4228,213.952,1192.94,27.9017,481.877,869.923,9.98789,452.684,670.752,-4.44026,452.409,467.507,-9.4791,397.516,241.175,-68.3442,347.981,189.736,148.891,394.599,195.559,57.298,95.3526,862.542,22.3435,126.337,670.15,-17.2969,123.167,463.487,-14.6423,173.943,220.026,-74.0272,231.977,194.305,132.292,168.433,197.625
63,0,97.6294,423.517,1160.77,116.826,142.787,1154.91,-111.671,316.326,1198.08,-99.344,213.979,1192.95,27.9652,481.891,869.92,10.0408,452.692,670.75,-4.40781,452.414,467.504,-9.47295,397.515,241.173,-68.3485,347.983,189.744,148.893,394.597,195.558,57.3452,95.3646,862.537,22.3746,126.347,670.149,-17.2807,123.177,463.49,-14.6416,173.945,220.027,-74.0291,231.977,194.307,132.292,168.434,197.625
64,0,97.7191,423.535,1160.76,116.9,142.801,1154.9,-111.593,316.356,1198.09,-99.2647,214.005,1192.96,28.0291,481.905,869.917,10.0933,452.7,670.747,-4.37567,452.418,467.501,-9.46685,397.514,241.171,-68.3528,347.985,189.752,148.895,394.595,195.557,57.3922,95.3765,862.532,22.4054,126.357,670.148,-17.2646,123.188,463.493,-14.6409,173.947,220.028,-74.031,231.977,194.309,132.293,168.435,197.625
65,0,97.8093,423.551,1160.75,116.975,142.815,1154.89,-111.515,316.386,1198.11,-99.1848,214.03,1192.96,28.0933,481.918,869.914,10.1453,452.708,670.744,-4.34384,452.422,467.498,-9.46081,397.513,241.17,-68.3569,347.987,189.759,148.898,394.593,195.556,57.4389,95.3881,862.527,22.4359,126.367,670.147,-17.2487,123.198,463.497,-14.6402,173.949,220.029,-74.033,231.977,194.31,132.293,168.436,197.624
66,0,97.8999,423.567,1160.74,117.05,142.828,1154.88,-111.436,316.415,1198.12,-99.1045,214.054,1192.97,28.1577,481.931,869.911,10.1969,452.715,670.742,-4.31231,452.427,467.496,-9.45482,397.512,241.168,-68.361,347.989,189.767,148.9,394.591,195.555,57.4853,95.3994,862.522,22.4662,126.377,670.146,-17.2329,123.208,463.5,-14.6394,173.951,220.03,-74.0349,231.977,194.312,132.294,168.437,197.624
67,0,97.9908,423.582,1160.73,117.126,142.84,1154.86,-111.357,316.443,1198.14,-99.0237,214.077,1192.97,28.2224,481.943,869.908,10.2479,452.723,670.739,-4.28109,452.431,467.493,-9.44889,397.511,241.166,-68.3649,347.991,189.774,148.902,394.59,195.554,57.5315,95.4105,862.517,22.4962,126.386,670.145,-17.2173,123.218,463.504,-14.6387,173.953,220.031,-74.0369,231.977,194.314,132.294,168.438,197.624
68,0,98.082,423.597,1160.72,117.203,142.852,1154.85,-111.278,316.469,1198.15,-98.9425,214.099,1192.98,28.2873,481.955,869.905,10.2985,452.73,670.736,-4.25019,452.434,467.491,-9.44301,397.51,241.164,-68.3688,347.993,189.781,148.904,394.588,195.553,57.5775,95.4214,862.512,22.526,126.396,670.143,-17.2018,123.228,463.507,-14.638,173.955,220.033,-74.0389,231.977,194.316,132.295,168.439,197.623
69,0,98.1735,423.611,1160.71,117.28,142.863,1154.84,-111.198,316.495,1198.16,-98.8608,214.12,1192.99,28.3525,481.966,869.903,10.3487,452.737,670.734,-4.21959,452.438,467.488,-9.43719,397.509,241.162,-68.3726,347.995,189.789,148.906,394.586,195.552,57.6231,95.432,862.507,22.5555,126.405,670.142,-17.1865,123.238,463.51,-14.6374,173.957,220.034,-74.0409,231.977,194.318,132.295,168.44,197.623
70,0,98.2653,423.624,1160.7,117.358,142.874,1154.83,-111.117,316.52,1198.18,-98.7787,214.141,1192.99,28.4179,481.977,869.9,10.3984,452.744,670.731,-4.1893,452.442,467.485,-9.43142,397.507,241.161,-68.3764,347.997,189.796,148.908,394.584,195.551,57.6686,95.4423,862.502,22.5847,126.414,670.141,-17.1713,123.247,463.513,-14.6367,173.958,220.035,-74.0429,231.977,194.319,132.296,168.441,197.623
71,0,98.3573,423.637,1160.69,117.437,142.884,1154.81,-111.036,316.544,1198.19,-98.6963,214.16,1193,28.4835,481.987,869.898,10.4475,452.75,670.729,-4.15931,452.445,467.483,-9.4257,397.506,241.159,-68.38,347.999,189.803,148.91,394.582,195.55,57.7138,95.4525,862.497,22.6137,126.423,670.14,-17.1563,123.257,463.516,-14.636,173.96,220.036,-74.045,231.977,194.321,132.296,168.442,197.623
72,0,98.4495,423.649,1160.68,117.516,142.893,1154.8,-110.955,316.567,1198.2,-98.6136,214.178,1193,28.5492,481.996,869.896,10.4963,452.757,670.727,-4.12964,452.449,467.481,-9.42005,397.505,241.157,-68.3835,348.001,189.809,148.912,394.581,195.549,57.7587,95.4623,862.492,22.6424,126.432,670.138,-17.1414,123.266,463.519,-14.6353,173.962,220.037,-74.047,231.977,194.323,132.296,168.443,197.622
73,0,98.5418,423.66,1160.67,117.595,142.902,1154.79,-110.874,316.589,1198.22,-98.5305,214.196,1193.01,28.6151,482.005,869.894,10.5445,452.763,670.724,-4.10027,452.452,467.478,-9.41444,397.504,241.156,-68.387,348.003,189.816,148.914,394.579,195.548,57.8034,95.472,862.487,22.6709,126.44,670.137,-17.1266,123.275,463.523,-14.6347,173.964,220.038,-74.0491,231.977,194.325,132.297,168.443,197.622
74,0,98.6343,423.671,1160.66,117.675,142.91,1154.77,-110.792,316.61,1198.23,-98.4472,214.213,1193.01,28.6812,482.014,869.892,10.5923,452.769,670.722,-4.07121,452.455,467.476,-9.40889,397.503,241.154,-68.3904,348.004,189.823,148.916,394.577,195.547,57.8478,95.4814,862.482,22.6991,126.449,670.136,-17.112,123.284,463.526,-14.634,173.966,220.039,-74.0512,231.977,194.327,132.297,168.444,197.622
75,0,98.7269,423.681,1160.65,117.756,142.917,1154.76,-110.71,316.63,1198.24,-98.3636,214.229,1193.02,28.7474,482.022,869.89,10.6396,452.775,670.72,-4.04247,452.459,467.474,-9.4034,397.502,241.153,-68.3937,348.006,189.829,148.918,394.575,195.546,57.892,95.4905,862.477,22.727,126.457,670.135,-17.0976,123.293,463.528,-14.6334,173.968,220.039,-74.0533,231.977,194.329,132.298,168.445,197.621
76,0,98.8195,423.69,1160.64,117.837,142.924,1154.75,-110.628,316.649,1198.25,-98.2797,214.244,1193.02,28.8136,482.03,869.889,10.6864,452.78,670.717,-4.01403,452.462,467.471,-9.39795,397.501,241.151,-68.3969,348.008,189.836,148.92,394.574,195.545,57.9359,95.4995,862.472,22.7547,126.465,670.133,-17.0833,123.302,463.531,-14.6327,173.969,220.04,-74.0554,231.977,194.33,132.298,168.446,197.621
77,0,98.9121,423.699,1160.63,117.918,142.931,1154.74,-110.545,316.667,1198.26,-98.1957,214.258,1193.02,28.88,482.037,869.887,10.7328,452.786,670.715,-3.98589,452.464,467.469,-9.39257,397.5,241.15,-68.4,348.009,189.842,148.922,394.572,195.544,57.9796,95.5081,862.467,22.7821,126.473,670.132,-17.0691,123.311,463.534,-14.6321,173.971,220.041,-74.0576,231.976,194.332,132.298,168.447,197.621
78,0,99.0047,423.707,1160.62,118,142.937,1154.72,-110.463,316.684,1198.28,-98.1115,214.271,1193.03,28.9464,482.044,869.886,10.7787,452.791,670.713,-3.95807,452.467,467.467,-9.38723,397.499,241.148,-68.4031,348.011,189.848,148.924,394.57,195.543,58.023,95.5166,862.462,22.8092,126.481,670.131,-17.0551,123.32,463.537,-14.6315,173.973,220.042,-74.0597,231.976,194.334,132.299,168.448,197.621
79,0,99.0973,423.714,1160.62,118.082,142.942,1154.71,-110.38,316.7,1198.29,-98.0272,214.283,1193.03,29.0128,482.05,869.884,10.8241,452.796,670.711,-3.93055,452.47,467.465,-9.38196,397.498,241.147,-68.4061,348.012,189.854,148.926,394.569,195.542,58.0661,95.5247,862.457,22.8361,126.488,670.129,-17.0412,123.328,463.54,-14.6309,173.974,220.043,-74.0619,231.976,194.336,132.299,168.449,197.62
80,0,99.1897,423.721,1160.61,118.164,142.946,1154.7,-110.297,316.716,1198.3,-97.9428,214.295,1193.04,29.0793,482.055,869.883,10.869,452.8,670.709,-3.90335,452.472,467.463,-9.37674,397.497,241.145,-68.4089,348.014,189.86,148.928,394.567,195.541,58.109,95.5327,862.451,22.8628,126.495,670.128,-17.0274,123.336,463.543,-14.6303,173.976,220.044,-74.0641,231.976,194.338,132.3,168.45,197.62
81,0,99.2821,423.728,1160.6,118.247,142.95,1154.68,-110.214,316.73,1198.31,-97.8583,214.305,1193.04,29.1458,482.061,869.882,10.9134,452.805,670.707,-3.87645,452.475,467.461,-9.37157,397.496,241.144,-68.4117,348.015,189.866,148.929,394.566,195.54,58.1516,95.5404,862.446,22.8891,126.502,670.127,-17.0138,123.345,463.545,-14.6297,173.978,220.045,-74.0663,231.976,194.339,132.3,168.451,197.62
82,0,99.3742,423.733,1160.59,118.329,142.954,1154.67,-110.131,316.743,1198.32,-97.7738,214.315,1193.04,29.2122,482.065,869.881,10.9574,452.809,670.705,-3.84986,452.477,467.459,-9.36645,397.494,241.142,-68.4145,348.016,189.872,148.931,394.564,195.539,58.194,95.5479,862.441,22.9152,126.509,670.125,-17.0004,123.353,463.548,-14.6291,173.979,220.046,-74.0685,231.975,194.341,132.3,168.451,197.619
83,0,99.4662,423.738,1160.58,118.412,142.957,1154.66,-110.048,316.756,1198.33,-97.6892,214.324,1193.05,29.2786,482.07,869.88,11.0009,452.813,670.703,-3.82358,452.479,467.457,-9.36139,397.493,241.141,-68.4171,348.018,189.877,148.933,394.562,195.538,58.2361,95.5551,862.436,22.9411,126.516,670.124,-16.9871,123.361,463.551,-14.6285,173.981,220.047,-74.0708,231.975,194.343,132.301,168.452,197.619
84,0,99.5579,423.743,1160.57,118.495,142.959,1154.64,-109.965,316.768,1198.34,-97.6047,214.332,1193.05,29.3449,482.073,869.879,11.0439,452.817,670.702,-3.79761,452.481,467.455,-9.35639,397.492,241.14,-68.4196,348.019,189.883,148.935,394.561,195.537,58.2779,95.5621,862.431,22.9667,126.523,670.122,-16.9739,123.369,463.553,-14.6279,173.982,220.047,-74.073,231.975,194.345,132.301,168.453,197.619
85,0,99.6494,423.746,1160.56,118.579,142.961,1154.63,-109.883,316.778,1198.35,-97.5202,214.339,1193.05,29.4111,482.077,869.879,11.0864,452.821,670.7,-3.77195,452.483,467.454,-9.35144,397.491,241.138,-68.4221,348.02,189.888,148.937,394.559,195.537,58.3194,95.5688,862.426,22.992,126.529,670.121,-16.9609,123.376,463.556,-14.6274,173.984,220.048,-74.0753,231.975,194.347,132.302,168.454,197.619
86,0,99.7405,423.75,1160.56,118.662,142.962,1154.62,-109.8,316.788,1198.36,-97.4358,214.345,1193.06,29.4772,482.08,869.878,11.1284,452.824,670.698,-3.74659,452.485,467.452,-9.34654,397.49,241.137,-68.4245,348.021,189.893,148.938,394.558,195.536,58.3607,95.5754,862.421,23.0171,126.535,670.12,-16.948,123.384,463.558,-14.6268,173.985,220.049,-74.0776,231.974,194.348,132.302,168.455,197.618
87,0,99.8313,423.752,1160.55,118.746,142.963,1154.6,-109.717,316.797,1198.37,-97.3515,214.35,1193.06,29.5432,482.082,869.878,11.17,452.827,670.697,-3.72155,452.487,467.45,-9.3417,397.489,241.136,-68.4268,348.022,189.898,148.94,394.556,195.535,58.4017,95.5816,862.415,23.0419,126.541,670.118,-16.9353,123.391,463.561,-14.6263,173.987,220.05,-74.0799,231.974,194.35,132.302,168.456,197.618
88,0,99.9216,423.755,1160.54,118.829,142.964,1154.59,-109.635,316.805,1198.37,-97.2674,214.355,1193.06,29.609,482.084,869.877,11.2111,452.83,670.695,-3.69681,452.489,467.448,-9.33692,397.487,241.135,-68.429,348.023,189.903,148.942,394.555,195.534,58.4425,95.5877,862.41,23.0664,126.547,670.117,-16.9227,123.399,463.563,-14.6257,173.988,220.05,-74.0822,231.974,194.352,132.303,168.456,197.618
89,0,100.012,423.756,1160.53,118.913,142.963,1154.58,-109.552,316.812,1198.38,-97.1834,214.359,1193.06,29.6746,482.086,869.877,11.2516,452.833,670.693,-3.67238,452.49,467.447,-9.33219,397.486,241.133,-68.4311,348.024,189.908,148.943,394.554,195.533,58.483,95.5935,862.405,23.0907,126.553,670.115,-16.9103,123.406,463.565,-14.6252,173.99,220.051,-74.0846,231.973,194.354,132.303,168.457,197.617
90,0,100.101,423.757,1160.52,118.996,142.963,1154.57,-109.47,316.818,1198.39,-97.0996,214.362,1193.06,29.74,482.087,869.877,11.2917,452.836,670.692,-3.64826,452.492,467.445,-9.32751,397.485,241.132,-68.4331,348.025,189.913,148.945,394.552,195.533,58.5232,95.5991,862.4,23.1148,126.558,670.114,-16.898,123.413,463.568,-14.6247,173.991,220.052,-74.0869,231.973,194.356,132.303,168.458,197.617
91,0,100.19,423.757,1160.52,119.079,142.961,1154.55,-109.388,316.823,1198.4,-97.0161,214.364,1193.07,29.8052,482.087,869.877,11.3314,452.838,670.69,-3.62445,452.493,467.444,-9.32289,397.484,241.131,-68.4351,348.026,189.918,148.947,394.551,195.532,58.5631,95.6044,862.395,23.1385,126.564,670.112,-16.8859,123.42,463.57,-14.6242,173.992,220.053,-74.0893,231.972,194.357,132.304,168.459,197.617
92,0,100.278,423.757,1160.51,119.163,142.96,1154.54,-109.306,316.827,1198.41,-96.9328,214.365,1193.07,29.8701,482.088,869.877,11.3705,452.84,670.689,-3.60095,452.494,467.442,-9.31832,397.483,241.13,-68.437,348.027,189.923,148.948,394.549,195.531,58.6028,95.6095,862.39,23.162,126.569,670.111,-16.8739,123.427,463.572,-14.6236,173.994,220.053,-74.0917,231.972,194.359,132.304,168.459,197.617
93,0,100.366,423.757,1160.5,119.246,142.957,1154.53,-109.225,316.831,1198.41,-96.8499,214.365,1193.07,29.9348,482.087,869.877,11.4091,452.842,670.688,-3.57776,452.495,467.441,-9.3138,397.481,241.129,-68.4388,348.028,189.927,148.95,394.548,195.53,58.6421,95.6144,862.385,23.1853,126.574,670.109,-16.862,123.434,463.574,-14.6231,173.995,220.054,-74.0941,231.972,194.361,132.305,168.46,197.616
94,0,100.453,423.755,1160.49,119.329,142.955,1154.51,-109.144,316.833,1198.42,-96.7673,214.365,1193.07,29.9991,482.087,869.877,11.4473,452.844,670.686,-3.55488,452.496,467.439,-9.30935,397.48,241.128,-68.4405,348.029,189.931,148.952,394.547,195.53,58.6812,95.619,862.379,23.2083,126.579,670.108,-16.8503,123.44,463.576,-14.6226,173.996,220.055,-74.0965,231.971,194.363,132.305,168.461,197.616
95,0,100.54,423.754,1160.49,119.412,142.952,1154.5,-109.064,316.835,1198.43,-96.685,214.364,1193.07,30.0631,482.086,869.878,11.4849,452.846,670.685,-3.53231,452.497,467.438,-9.30494,397.479,241.127,-68.4421,348.029,189.936,148.953,394.545,195.529,58.7201,95.6234,862.374,23.231,126.583,670.106,-16.8387,123.447,463.579,-14.6222,173.998,220.055,-74.099,231.971,194.364,132.305,168.462,197.616
96,0,100.626,423.751,1160.48,119.494,142.948,1154.49,-108.983,316.835,1198.43,-96.6032,214.362,1193.07,30.1268,482.084,869.878,11.5221,452.847,670.684,-3.51004,452.498,467.437,-9.30059,397.478,241.126,-68.4436,348.03,189.94,148.955,394.544,195.528,58.7586,95.6276,862.369,23.2535,126.588,670.105,-16.8273,123.453,463.581,-14.6217,173.999,220.056,-74.1014,231.97,194.366,132.306,168.462,197.615
97,0,100.711,423.749,1160.47,119.577,142.944,1154.48,-108.904,316.835,1198.44,-96.5217,214.359,1193.07,30.19,482.082,869.879,11.5587,452.848,670.683,-3.48808,452.498,467.436,-9.29629,397.476,241.125,-68.4451,348.031,189.944,148.956,394.543,195.528,58.7969,95.6315,862.364,23.2757,126.592,670.103,-16.816,123.46,463.583,-14.6212,174,220.056,-74.1039,231.97,194.368,132.306,168.463,197.615
98,0,100.795,423.745,1160.47,119.659,142.939,1154.46,-108.824,316.834,1198.44,-96.4408,214.356,1193.07,30.2529,482.08,869.879,11.5949,452.849,670.681,-3.46644,452.499,467.434,-9.29205,397.475,241.124,-68.4465,348.031,189.948,148.958,394.541,195.527,58.8348,95.6352,862.359,23.2976,126.596,670.102,-16.8049,123.466,463.585,-14.6207,174.001,220.057,-74.1064,231.969,194.37,132.306,168.464,197.615
99,0,100.878,423.742,1160.46,119.74,142.934,1154.45,-108.746,316.832,1198.45,-96.3603,214.351,1193.07,30.3153,482.078,869.88,11.6306,452.85,670.68,-3.4451,452.499,467.433,-9.28787,397.474,241.123,-68.4478,348.032,189.952,148.959,394.54,195.526,58.8725,95.6387,862.353,23.3193,126.6,670.1,-16.7939,123.472,463.586,-14.6203,174.003,220.058,-74.1089,231.968,194.372,132.307,168.465,197.614
100,0,100.961,423.737,1160.45,119.822,142.929,1154.44,-108.667,316.83,1198.46,-96.2803,214.346,1193.07,30.3773,482.075,869.881,11.6658,452.851,670.679,-3.42407,452.499,467.432,-9.28373,397.473,241.122,-68.449,348.032,189.955,148.961,394.539,195.526,58.91,95.6419,862.348,23.3407,126.604,670.099,-16.7831,123.478,463.588,-14.6198,174.004,220.058,-74.1114,231.968,194.373,132.307,168.465,197.614
101,0,101.043,423.732,1160.45,119.903,142.923,1154.43,-108.59,316.826,1198.46,-96.2009,214.34,1193.07,30.4388,482.071,869.881,11.7004,452.851,670.678,-3.40335,452.5,467.431,-9.27966,397.471,241.121,-68.4501,348.033,189.959,148.962,394.537,195.525,58.9471,95.645,862.343,23.3619,126.607,670.097,-16.7724,123.483,463.59,-14.6194,174.005,220.059,-74.1139,231.967,194.375,132.307,168.466,197.614
102,0,101.123,423.727,1160.44,119.983,142.917,1154.42,-108.513,316.822,1198.46,-96.1221,214.334,1193.07,30.4998,482.067,869.882,11.7346,452.852,670.677,-3.38294,452.5,467.43,-9.27563,397.47,241.12,-68.4511,348.033,189.962,148.963,394.536,195.525,58.9839,95.6477,862.338,23.3828,126.611,670.095,-16.7618,123.489,463.592,-14.6189,174.006,220.059,-74.1165,231.967,194.377,132.307,168.467,197.614
103,0,101.203,423.722,1160.44,120.063,142.911,1154.4,-108.436,316.816,1198.47,-96.0439,214.326,1193.07,30.5602,482.063,869.883,11.7683,452.852,670.677,-3.36284,452.5,467.429,-9.27167,397.469,241.119,-68.4521,348.033,189.966,148.965,394.535,195.524,59.0204,95.6503,862.332,23.4034,126.614,670.094,-16.7514,123.495,463.594,-14.6185,174.007,220.06,-74.1191,231.966,194.379,132.308,168.467,197.613
104,0,101.282,423.715,1160.43,120.143,142.904,1154.39,-108.361,316.81,1198.47,-95.9663,214.318,1193.07,30.6201,482.059,869.884,11.8015,452.851,670.676,-3.34305,452.5,467.428,-9.26775,397.468,241.118,-68.453,348.034,189.969,148.966,394.534,195.523,59.0567,95.6526,862.327,23.4238,126.617,670.092,-16.7411,123.5,463.595,-14.6181,174.008,220.06,-74.1216,231.965,194.38,132.308,168.468,197.613
105,0,101.359,423.709,1160.43,120.222,142.896,1154.38,-108.286,316.803,1198.48,-95.8895,214.309,1193.07,30.6794,482.054,869.885,11.8342,452.851,670.675,-3.32357,452.499,467.427,-9.26389,397.466,241.118,-68.4538,348.034,189.972,148.967,394.533,195.523,59.0927,95.6547,862.322,23.4439,126.62,670.091,-16.731,123.505,463.597,-14.6177,174.009,220.061,-74.1243,231.965,194.382,132.308,168.469,197.613
106,0,101.436,423.702,1160.42,120.3,142.889,1154.37,-108.211,316.796,1198.48,-95.8133,214.3,1193.07,30.7382,482.049,869.887,11.8664,452.85,670.674,-3.3044,452.499,467.426,-9.26008,397.465,241.117,-68.4545,348.034,189.975,148.969,394.531,195.522,59.1283,95.6566,862.317,23.4638,126.622,670.089,-16.721,123.51,463.599,-14.6173,174.01,220.061,-74.1269,231.964,194.384,132.309,168.469,197.612
107,0,101.512,423.694,1160.41,120.378,142.88,1154.36,-108.138,316.787,1198.48,-95.7378,214.289,1193.07,30.7962,482.043,869.888,11.8981,452.85,670.673,-3.28553,452.498,467.426,-9.25633,397.464,241.116,-68.4551,348.034,189.978,148.97,394.53,195.522,59.1637,95.6582,862.312,23.4834,126.625,670.087,-16.7112,123.515,463.6,-14.6169,174.011,220.062,-74.1295,231.963,194.386,132.309,168.47,197.612
108,0,101.586,423.686,1160.41,120.456,142.872,1154.35,-108.065,316.778,1198.48,-95.6631,214.278,1193.07,30.8537,482.037,869.889,11.9292,452.849,670.673,-3.26698,452.498,467.425,-9.25264,397.462,241.115,-68.4557,348.034,189.981,148.971,394.529,195.521,59.1988,95.6597,862.306,23.5027,126.627,670.085,-16.7015,123.52,463.602,-14.6165,174.012,220.062,-74.1322,231.962,194.388,132.309,168.471,197.612
109,0,101.659,423.678,1160.41,120.532,142.863,1154.34,-107.993,316.768,1198.49,-95.5892,214.267,1193.07,30.9104,482.031,869.891,11.9599,452.848,670.672,-3.24874,452.497,467.424,-9.24899,397.461,241.115,-68.4561,348.034,189.984,148.973,394.528,195.521,59.2335,95.6609,862.301,23.5218,126.629,670.084,-16.692,123.525,463.603,-14.6161,174.013,220.063,-74.1348,231.962,194.389,132.31,168.471,197.611
110,0,101.731,423.67,1160.4,120.608,142.854,1154.32,-107.922,316.757,1198.49,-95.5161,214.254,1193.07,30.9664,482.024,869.892,11.9901,452.846,670.672,-3.2308,452.496,467.424,-9.24541,397.46,241.114,-68.4565,348.034,189.986,148.974,394.527,195.52,59.268,95.6618,862.296,23.5406,126.631,670.082,-16.6826,123.53,463.605,-14.6157,174.014,220.063,-74.1375,231.961,194.391,132.31,168.472,197.611
111,0,101.802,423.66,1160.4,120.684,142.845,1154.31,-107.852,316.745,1198.49,-95.4439,214.241,1193.07,31.0217,482.017,869.894,12.0197,452.845,670.671,-3.21318,452.495,467.423,-9.24187,397.458,241.114,-68.4568,348.034,189.989,148.975,394.526,195.52,59.3022,95.6626,862.291,23.5591,126.633,670.08,-16.6733,123.534,463.606,-14.6154,174.015,220.064,-74.1402,231.96,194.393,132.31,168.473,197.611
112,0,101.871,423.651,1160.39,120.758,142.835,1154.3,-107.783,316.732,1198.49,-95.3725,214.227,1193.06,31.0763,482.01,869.895,12.0489,452.843,670.671,-3.19586,452.494,467.422,-9.23839,397.457,241.113,-68.457,348.034,189.991,148.976,394.525,195.519,59.3361,95.6631,862.286,23.5774,126.635,670.078,-16.6642,123.539,463.607,-14.615,174.016,220.064,-74.143,231.959,194.395,132.31,168.473,197.611
113,0,101.939,423.641,1160.39,120.832,142.825,1154.29,-107.715,316.719,1198.49,-95.3021,214.213,1193.06,31.13,482.003,869.897,12.0775,452.841,670.67,-3.17886,452.493,467.422,-9.23497,397.456,241.112,-68.4571,348.034,189.993,148.978,394.524,195.519,59.3696,95.6634,862.28,23.5954,126.636,670.077,-16.6553,123.543,463.609,-14.6147,174.017,220.064,-74.1457,231.958,194.396,132.311,168.474,197.61
114,0,102.006,423.631,1160.38,120.905,142.815,1154.28,-107.647,316.705,1198.49,-95.2325,214.197,1193.06,31.183,481.995,869.899,12.1057,452.839,670.67,-3.16216,452.492,467.421,-9.2316,397.454,241.112,-68.4572,348.034,189.996,148.979,394.523,195.518,59.4029,95.6635,862.275,23.6132,126.637,670.075,-16.6464,123.547,463.61,-14.6143,174.018,220.065,-74.1484,231.958,194.398,132.311,168.474,197.61
115,0,102.071,423.62,1160.38,120.978,142.804,1154.27,-107.581,316.69,1198.5,-95.1639,214.181,1193.06,31.2351,481.987,869.9,12.1333,452.837,670.67,-3.14578,452.49,467.421,-9.22828,397.453,241.111,-68.4571,348.034,189.998,148.98,394.522,195.518,59.4359,95.6634,862.27,23.6307,126.638,670.073,-16.6378,123.551,463.611,-14.614,174.018,220.065,-74.1512,231.957,194.4,132.311,168.475,197.61
116,0,102.135,423.609,1160.38,121.049,142.793,1154.26,-107.516,316.674,1198.5,-95.0963,214.165,1193.06,31.2864,481.978,869.902,12.1604,452.834,670.669,-3.1297,452.489,467.421,-9.22502,397.451,241.111,-68.457,348.034,190,148.981,394.521,195.518,59.4685,95.663,862.265,23.648,126.639,670.071,-16.6292,123.555,463.612,-14.6137,174.019,220.065,-74.154,231.956,194.402,132.312,168.476,197.609
117,0,102.197,423.598,1160.37,121.12,142.782,1154.25,-107.451,316.658,1198.5,-95.0297,214.147,1193.05,31.3368,481.97,869.904,12.187,452.831,670.669,-3.11393,452.487,467.42,-9.22181,397.45,241.11,-68.4568,348.033,190.001,148.982,394.52,195.517,59.5009,95.6624,862.26,23.6649,126.64,670.07,-16.6209,123.559,463.613,-14.6133,174.02,220.066,-74.1568,231.955,194.403,132.312,168.476,197.609
118,0,102.258,423.586,1160.37,121.189,142.771,1154.24,-107.388,316.641,1198.5,-94.9641,214.129,1193.05,31.3863,481.961,869.906,12.2131,452.829,670.669,-3.09848,452.486,467.42,-9.21866,397.449,241.11,-68.4565,348.033,190.003,148.983,394.519,195.517,59.5329,95.6616,862.254,23.6817,126.64,670.068,-16.6126,123.563,463.614,-14.613,174.021,220.066,-74.1596,231.954,194.405,132.312,168.477,197.609
119,0,102.317,423.575,1160.37,121.258,142.759,1154.23,-107.326,316.623,1198.49,-94.8995,214.111,1193.05,31.4349,481.951,869.908,12.2386,452.826,670.669,-3.08333,452.484,467.42,-9.21556,397.447,241.109,-68.4562,348.032,190.005,148.984,394.518,195.516,59.5646,95.6606,862.249,23.6981,126.641,670.066,-16.6045,123.566,463.616,-14.6127,174.021,220.066,-74.1625,231.953,194.407,132.312,168.477,197.608
120,0,102.375,423.562,1160.37,121.326,142.747,1154.22,-107.266,316.604,1198.49,-94.836,214.092,1193.05,31.4825,481.942,869.91,12.2637,452.822,670.669,-3.0685,452.482,467.42,-9.21251,397.446,241.109,-68.4557,348.032,190.006,148.985,394.517,195.516,59.596,95.6594,862.244,23.7143,126.641,670.064,-16.5966,123.57,463.616,-14.6124,174.022,220.066,-74.1653,231.952,194.409,132.313,168.478,197.608
121,0,102.432,423.55,1160.36,121.393,142.735,1154.21,-107.206,316.585,1198.49,-94.7736,214.072,1193.04,31.5292,481.932,869.912,12.2882,452.819,670.669,-3.05397,452.48,467.419,-9.20952,397.444,241.109,-68.4552,348.031,190.008,148.986,394.516,195.516,59.6271,95.658,862.239,23.7303,126.641,670.062,-16.5888,123.573,463.617,-14.6122,174.023,220.067,-74.1682,231.951,194.41,132.313,168.478,197.608
122,0,102.486,423.537,1160.36,121.459,142.723,1154.2,-107.147,316.565,1198.49,-94.7123,214.051,1193.04,31.5749,481.922,869.914,12.3122,452.815,670.669,-3.03975,452.477,467.419,-9.20659,397.443,241.108,-68.4546,348.031,190.009,148.987,394.515,195.515,59.6579,95.6563,862.234,23.7459,126.641,670.06,-16.5811,123.576,463.618,-14.6119,174.023,220.067,-74.1711,231.95,194.412,132.313,168.479,197.607
123,0,102.539,423.524,1160.36,121.524,142.711,1154.2,-107.09,316.544,1198.49,-94.6522,214.03,1193.04,31.6196,481.912,869.917,12.3357,452.811,670.669,-3.02585,452.475,467.419,-9.2037,397.442,241.108,-68.4539,348.03,190.01,148.988,394.514,195.515,59.6883,95.6544,862.229,23.7614,126.64,670.059,-16.5736,123.579,463.619,-14.6116,174.024,220.067,-74.174,231.949,194.414,132.313,168.479,197.607
124,0,102.591,423.51,1160.36,121.588,142.698,1154.19,-107.034,316.523,1198.49,-94.5932,214.008,1193.03,31.6632,481.901,869.919,12.3587,452.807,670.669,-3.01225,452.473,467.419,-9.20088,397.44,241.108,-68.4531,348.03,190.011,148.989,394.514,195.515,59.7184,95.6523,862.223,23.7765,126.64,670.057,-16.5662,123.582,463.62,-14.6113,174.024,220.067,-74.1769,231.948,194.416,132.313,168.48,197.607
125,0,102.641,423.497,1160.36,121.651,142.685,1154.18,-106.979,316.5,1198.49,-94.5354,213.986,1193.03,31.7058,481.891,869.921,12.3812,452.803,670.669,-2.99896,452.47,467.419,-9.1981,397.439,241.108,-68.4522,348.029,190.012,148.99,394.513,195.514,59.7482,95.65,862.218,23.7914,126.639,670.055,-16.559,123.585,463.621,-14.6111,174.025,220.068,-74.1798,231.947,194.417,132.314,168.48,197.607
126,0,102.689,423.483,1160.36,121.713,142.672,1154.17,-106.926,316.478,1198.48,-94.4787,213.963,1193.03,31.7473,481.88,869.924,12.4031,452.799,670.669,-2.98599,452.468,467.419,-9.19538,397.437,241.107,-68.4513,348.028,190.013,148.991,394.512,195.514,59.7777,95.6475,862.213,23.806,126.638,670.053,-16.5519,123.587,463.622,-14.6108,174.026,220.068,-74.1828,231.946,194.419,132.314,168.481,197.606
127,0,102.735,423.469,1160.36,121.774,142.659,1154.16,-106.873,316.454,1198.48,-94.4233,213.939,1193.02,31.7877,481.868,869.926,12.4245,452.794,670.669,-2.97332,452.465,467.42,-9.19272,397.436,241.107,-68.4502,348.027,190.014,148.992,394.511,195.514,59.8069,95.6448,862.208,23.8204,126.637,670.051,-16.545,123.59,463.622,-14.6106,174.026,220.068,-74.1858,231.945,194.421,132.314,168.481,197.606
128,0,102.78,423.454,1160.35,121.834,142.646,1154.15,-106.823,316.43,1198.48,-94.3691,213.915,1193.02,31.827,481.857,869.928,12.4454,452.79,670.67,-2.96097,452.462,467.42,-9.19011,397.434,241.107,-68.4491,348.027,190.014,148.993,394.51,195.514,59.8357,95.6418,862.203,23.8345,126.636,670.049,-16.5382,123.592,463.623,-14.6103,174.027,220.068,-74.1887,231.944,194.423,132.314,168.482,197.606
129,0,102.823,423.44,1160.35,121.893,142.633,1154.15,-106.773,316.405,1198.47,-94.3162,213.89,1193.02,31.8652,481.845,869.931,12.4658,452.785,670.67,-2.94892,452.459,467.42,-9.18755,397.433,241.107,-68.4479,348.026,190.015,148.994,394.51,195.513,59.8643,95.6387,862.198,23.8484,126.634,670.047,-16.5316,123.595,463.623,-14.6101,174.027,220.068,-74.1917,231.942,194.424,132.315,168.482,197.605
130,0,102.864,423.425,1160.35,121.95,142.619,1154.14,-106.725,316.379,1198.47,-94.2645,213.865,1193.01,31.9023,481.833,869.933,12.4856,452.78,670.67,-2.93719,452.456,467.42,-9.18505,397.431,241.107,-68.4467,348.025,190.015,148.995,394.509,195.513,59.8924,95.6353,862.193,23.862,126.633,670.045,-16.5251,123.597,463.624,-14.6099,174.027,220.068,-74.1947,231.941,194.426,132.315,168.483,197.605
131,0,102.903,423.41,1160.35,122.007,142.606,1154.13,-106.678,316.353,1198.47,-94.214,213.839,1193.01,31.9381,481.821,869.936,12.505,452.774,670.671,-2.92576,452.453,467.421,-9.1826,397.43,241.107,-68.4453,348.024,190.015,148.995,394.508,195.513,59.9203,95.6317,862.188,23.8753,126.631,670.043,-16.5187,123.599,463.625,-14.6097,174.028,220.068,-74.1978,231.94,194.428,132.315,168.483,197.605
132,0,102.941,423.395,1160.35,122.062,142.592,1154.13,-106.633,316.327,1198.46,-94.1649,213.812,1193,31.9728,481.809,869.938,12.5238,452.769,670.671,-2.91465,452.45,467.421,-9.18021,397.428,241.106,-68.4439,348.023,190.016,148.996,394.507,195.513,59.9478,95.628,862.183,23.8883,126.629,670.041,-16.5125,123.601,463.625,-14.6095,174.028,220.068,-74.2008,231.939,194.43,132.315,168.484,197.604
133,0,102.976,423.379,1160.35,122.116,142.578,1154.12,-106.589,316.299,1198.46,-94.1171,213.785,1193,32.0063,481.797,869.941,12.542,452.763,670.672,-2.90385,452.446,467.421,-9.17786,397.427,241.106,-68.4423,348.022,190.016,148.997,394.507,195.513,59.975,95.624,862.177,23.9011,126.627,670.039,-16.5064,123.603,463.625,-14.6093,174.029,220.069,-74.2039,231.938,194.431,132.315,168.484,197.604
134,0,103.01,423.364,1160.35,122.169,142.564,1154.11,-106.546,316.271,1198.46,-94.0705,213.758,1193,32.0385,481.784,869.944,12.5598,452.757,670.672,-2.89336,452.443,467.422,-9.17558,397.425,241.106,-68.4407,348.021,190.016,148.998,394.506,195.512,60.0019,95.6198,862.172,23.9137,126.624,670.037,-16.5005,123.604,463.626,-14.6091,174.029,220.069,-74.207,231.936,194.433,132.316,168.485,197.604
135,0,103.042,423.348,1160.36,122.221,142.55,1154.1,-106.505,316.242,1198.45,-94.0253,213.73,1192.99,32.0695,481.771,869.947,12.577,452.751,670.673,-2.88317,452.439,467.422,-9.17335,397.424,241.106,-68.4391,348.019,190.015,148.999,394.505,195.512,60.0284,95.6154,862.167,23.926,126.622,670.035,-16.4948,123.606,463.626,-14.6089,174.029,220.069,-74.2101,231.935,194.435,132.316,168.485,197.603
136,0,103.072,423.332,1160.36,122.272,142.536,1154.1,-106.465,316.213,1198.45,-93.9815,213.701,1192.99,32.0993,481.759,869.949,12.5936,452.745,670.673,-2.8733,452.435,467.423,-9.17117,397.422,241.106,-68.4373,348.018,190.015,148.999,394.505,195.512,60.0546,95.6108,862.162,23.938,126.619,670.033,-16.4891,123.607,463.626,-14.6087,174.03,220.069,-74.2132,231.934,194.437,132.316,168.485,197.603
137,0,103.101,423.316,1160.36,122.322,142.522,1154.09,-106.427,316.183,1198.44,-93.9389,213.672,1192.98,32.1278,481.746,869.952,12.6098,452.739,670.674,-2.86374,452.432,467.423,-9.16904,397.421,241.106,-68.4354,348.017,190.015,149,394.504,195.512,60.0804,95.606,862.157,23.9497,126.616,670.031,-16.4836,123.609,463.627,-14.6086,174.03,220.069,-74.2163,231.933,194.438,132.316,168.486,197.603
138,0,103.127,423.299,1160.36,122.37,142.508,1154.09,-106.39,316.153,1198.44,-93.8978,213.642,1192.98,32.155,481.732,869.955,12.6254,452.732,670.675,-2.85449,452.428,467.424,-9.16697,397.419,241.107,-68.4335,348.016,190.014,149.001,394.504,195.512,60.1059,95.601,862.152,23.9612,126.613,670.029,-16.4783,123.61,463.627,-14.6084,174.03,220.069,-74.2195,231.931,194.44,132.316,168.486,197.602
139,0,103.152,423.283,1160.36,122.417,142.494,1154.08,-106.355,316.122,1198.43,-93.858,213.612,1192.97,32.181,481.719,869.958,12.6405,452.726,670.676,-2.84555,452.424,467.425,-9.16496,397.418,241.107,-68.4315,348.014,190.014,149.001,394.503,195.512,60.1311,95.5957,862.147,23.9725,126.61,670.027,-16.4731,123.611,463.627,-14.6083,174.03,220.069,-74.2227,231.93,194.442,132.317,168.487,197.602
140,0,103.174,423.266,1160.36,122.463,142.479,1154.08,-106.322,316.09,1198.43,-93.8196,213.581,1192.97,32.2056,481.705,869.961,12.6551,452.719,670.676,-2.83693,452.419,467.426,-9.163,397.416,241.107,-68.4294,348.013,190.013,149.002,394.502,195.512,60.1559,95.5903,862.142,23.9834,126.607,670.025,-16.4681,123.612,463.627,-14.6081,174.031,220.069,-74.2258,231.929,194.443,132.317,168.487,197.602
141,0,103.195,423.25,1160.36,122.507,142.465,1154.07,-106.289,316.058,1198.42,-93.7825,213.55,1192.96,32.2289,481.692,869.964,12.6691,452.712,670.677,-2.82861,452.415,467.426,-9.16109,397.414,241.107,-68.4272,348.012,190.012,149.003,394.502,195.512,60.1804,95.5847,862.137,23.9941,126.603,670.023,-16.4632,123.613,463.627,-14.608,174.031,220.069,-74.229,231.927,194.445,132.317,168.487,197.601
142,0,103.214,423.233,1160.37,122.551,142.451,1154.07,-106.259,316.025,1198.41,-93.7469,213.518,1192.96,32.2508,481.678,869.967,12.6826,452.705,670.678,-2.8206,452.411,467.427,-9.15923,397.413,241.107,-68.425,348.01,190.011,149.003,394.501,195.512,60.2046,95.5789,862.132,24.0046,126.599,670.021,-16.4584,123.613,463.627,-14.6079,174.031,220.068,-74.2323,231.926,194.447,132.317,168.488,197.601
143,0,103.23,423.216,1160.37,122.593,142.437,1154.06,-106.23,315.992,1198.41,-93.7126,213.486,1192.95,32.2715,481.664,869.97,12.6955,452.697,670.679,-2.81291,452.406,467.428,-9.15743,397.411,241.107,-68.4226,348.009,190.01,149.004,394.501,195.512,60.2284,95.5729,862.127,24.0148,126.596,670.019,-16.4538,123.614,463.627,-14.6078,174.031,220.068,-74.2355,231.924,194.449,132.317,168.488,197.601
144,0,103.245,423.199,1160.37,122.634,142.423,1154.06,-106.202,315.958,1198.4,-93.6797,213.453,1192.95,32.2907,481.65,869.973,12.7079,452.69,670.68,-2.80552,452.402,467.429,-9.15569,397.41,241.108,-68.4202,348.007,190.009,149.004,394.5,195.512,60.2518,95.5666,862.122,24.0247,126.591,670.016,-16.4493,123.614,463.627,-14.6076,174.031,220.068,-74.2387,231.923,194.45,132.317,168.489,197.6
145,0,103.258,423.182,1160.38,122.674,142.408,1154.05,-106.176,315.923,1198.39,-93.6483,213.419,1192.94,32.3087,481.636,869.976,12.7198,452.682,670.681,-2.79845,452.397,467.43,-9.154,397.408,241.108,-68.4177,348.005,190.008,149.005,394.5,195.512,60.2749,95.5602,862.117,24.0343,126.587,670.014,-16.445,123.615,463.627,-14.6075,174.031,220.068,-74.242,231.922,194.452,132.318,168.489,197.6
146,0,103.269,423.165,1160.38,122.712,142.394,1154.05,-106.152,315.888,1198.39,-93.6182,213.386,1192.94,32.3252,481.622,869.979,12.7311,452.674,670.682,-2.79169,452.392,467.431,-9.15236,397.407,241.108,-68.4151,348.004,190.006,149.005,394.499,195.512,60.2977,95.5536,862.112,24.0437,126.583,670.012,-16.4408,123.615,463.627,-14.6074,174.031,220.068,-74.2453,231.92,194.454,132.318,168.489,197.6
147,0,103.278,423.148,1160.38,122.749,142.38,1154.04,-106.129,315.853,1198.38,-93.5895,213.352,1192.93,32.3404,481.607,869.982,12.742,452.666,670.683,-2.78524,452.387,467.432,-9.15077,397.405,241.108,-68.4125,348.002,190.005,149.006,394.499,195.512,60.3201,95.5468,862.108,24.0529,126.578,670.01,-16.4368,123.615,463.627,-14.6074,174.031,220.068,-74.2486,231.919,194.455,132.318,168.49,197.6
148,0,103.285,423.13,1160.39,122.785,142.366,1154.04,-106.108,315.817,1198.37,-93.5623,213.317,1192.93,32.3541,481.593,869.986,12.7522,452.658,670.685,-2.7791,452.382,467.433,-9.14924,397.403,241.109,-68.4097,348,190.003,149.006,394.498,195.512,60.3422,95.5398,862.103,24.0617,126.573,670.008,-16.4329,123.615,463.626,-14.6073,174.031,220.068,-74.2519,231.917,194.457,132.318,168.49,197.599
149,0,103.29,423.113,1160.39,122.82,142.352,1154.03,-106.088,315.78,1198.37,-93.5364,213.282,1192.92,32.3665,481.578,869.989,12.762,452.649,670.686,-2.77327,452.377,467.434,-9.14777,397.402,241.109,-68.4069,347.998,190.002,149.007,394.498,195.512,60.3638,95.5326,862.098,24.0704,126.568,670.005,-16.4291,123.615,463.626,-14.6072,174.031,220.068,-74.2552,231.916,194.459,132.318,168.49,197.599
150,0,103.294,423.095,1160.39,122.853,142.338,1154.03,-106.07,315.743,1198.36,-93.512,213.246,1192.91,32.3775,481.563,869.992,12.7711,452.641,670.687,-2.76775,452.372,467.435,-9.14635,397.4,241.109,-68.404,347.997,190,149.007,394.498,195.512,60.3852,95.5252,862.093,24.0787,126.563,670.003,-16.4255,123.615,463.626,-14.6071,174.031,220.067,-74.2586,231.914,194.461,132.318,168.491,197.599
151,0,103.295,423.078,1160.4,122.885,142.324,1154.03,-106.053,315.706,1198.35,-93.4889,213.21,1192.91,32.387,481.549,869.995,12.7798,452.632,670.688,-2.76255,452.366,467.437,-9.14497,397.398,241.11,-68.401,347.995,189.998,149.008,394.497,195.512,60.4062,95.5176,862.088,24.0868,126.558,670.001,-16.4221,123.614,463.625,-14.6071,174.031,220.067,-74.2619,231.912,194.462,132.318,168.491,197.598
152,0,103.294,423.06,1160.4,122.916,142.31,1154.02,-106.038,315.668,1198.35,-93.4673,213.174,1192.9,32.3952,481.534,869.999,12.7879,452.623,670.69,-2.75765,452.361,467.438,-9.14366,397.397,241.11,-68.3979,347.993,189.996,149.008,394.497,195.512,60.4268,95.5098,862.083,24.0946,126.552,669.999,-16.4188,123.614,463.625,-14.607,174.031,220.067,-74.2653,231.911,194.464,132.318,168.491,197.598
153,0,103.292,423.043,1160.41,122.946,142.296,1154.02,-106.025,315.629,1198.34,-93.4471,213.137,1192.9,32.4019,481.519,870.002,12.7955,452.614,670.691,-2.75307,452.355,467.439,-9.1424,397.395,241.111,-68.3948,347.991,189.994,149.008,394.496,195.512,60.4471,95.5018,862.079,24.1022,126.547,669.997,-16.4156,123.613,463.625,-14.607,174.031,220.067,-74.2687,231.909,194.466,132.319,168.491,197.598
154,0,103.287,423.025,1160.41,122.974,142.282,1154.02,-106.013,315.59,1198.33,-93.4282,213.099,1192.89,32.4072,481.504,870.005,12.8025,452.605,670.693,-2.7488,452.349,467.44,-9.14119,397.393,241.111,-68.3915,347.989,189.992,149.009,394.496,195.512,60.467,95.4936,862.074,24.1095,126.541,669.994,-16.4126,123.612,463.624,-14.6069,174.031,220.066,-74.2721,231.908,194.467,132.319,168.492,197.597
155,0,103.281,423.007,1160.42,123.001,142.268,1154.02,-106.003,315.551,1198.32,-93.4108,213.062,1192.89,32.4111,481.489,870.009,12.809,452.595,670.694,-2.74484,452.344,467.442,-9.14004,397.392,241.112,-68.3882,347.987,189.989,149.009,394.496,195.512,60.4866,95.4853,862.069,24.1165,126.535,669.992,-16.4097,123.611,463.624,-14.6069,174.031,220.066,-74.2756,231.906,194.469,132.319,168.492,197.597
156,0,103.272,422.99,1160.42,123.027,142.254,1154.01,-105.995,315.511,1198.31,-93.3948,213.024,1192.88,32.4136,481.474,870.012,12.8149,452.586,670.696,-2.74119,452.338,467.443,-9.13894,397.39,241.112,-68.3848,347.984,189.987,149.009,394.496,195.512,60.5058,95.4767,862.064,24.1233,126.528,669.99,-16.407,123.61,463.623,-14.6069,174.031,220.066,-74.279,231.904,194.471,132.319,168.492,197.597
157,0,103.262,422.972,1160.43,123.052,142.241,1154.01,-105.987,315.471,1198.31,-93.3801,212.985,1192.87,32.4147,481.459,870.016,12.8204,452.576,670.697,-2.73785,452.332,467.445,-9.13789,397.388,241.113,-68.3814,347.982,189.984,149.01,394.495,195.512,60.5247,95.468,862.059,24.1298,126.522,669.987,-16.4044,123.609,463.622,-14.6069,174.03,220.066,-74.2825,231.903,194.472,132.319,168.492,197.596
158,0,103.25,422.954,1160.43,123.075,142.227,1154.01,-105.982,315.43,1198.3,-93.3668,212.946,1192.87,32.4143,481.443,870.019,12.8252,452.566,670.699,-2.73483,452.325,467.446,-9.1369,397.387,241.113,-68.3778,347.98,189.982,149.01,394.495,195.513,60.5431,95.459,862.055,24.1361,126.515,669.985,-16.4019,123.608,463.622,-14.6069,174.03,220.065,-74.286,231.901,194.474,132.319,168.493,197.596
159,0,103.236,422.936,1160.44,123.098,142.214,1154.01,-105.978,315.389,1198.29,-93.3549,212.907,1192.86,32.4125,481.428,870.023,12.8295,452.556,670.701,-2.73211,452.319,467.448,-9.13597,397.385,241.114,-68.3742,347.978,189.979,149.01,394.495,195.513,60.5613,95.4499,862.05,24.142,126.509,669.983,-16.3997,123.606,463.621,-14.6069,174.03,220.065,-74.2895,231.899,194.476,132.319,168.493,197.596
160,0,103.22,422.919,1160.45,123.119,142.201,1154.01,-105.976,315.347,1198.28,-93.3443,212.867,1192.86,32.4093,481.413,870.026,12.8333,452.546,670.702,-2.72971,452.313,467.45,-9.13508,397.383,241.115,-68.3704,347.975,189.976,149.01,394.494,195.513,60.579,95.4406,862.045,24.1478,126.502,669.981,-16.3975,123.605,463.62,-14.6069,174.03,220.065,-74.293,231.897,194.478,132.319,168.493,197.595
161,0,103.202,422.901,1160.45,123.138,142.187,1154,-105.975,315.305,1198.27,-93.3351,212.827,1192.85,32.4046,481.397,870.03,12.8365,452.536,670.704,-2.72762,452.306,467.451,-9.13425,397.382,241.115,-68.3666,347.973,189.973,149.011,394.494,195.513,60.5964,95.4311,862.041,24.1532,126.495,669.978,-16.3955,123.603,463.619,-14.6069,174.029,220.064,-74.2965,231.896,194.479,132.319,168.493,197.595
162,0,103.182,422.883,1160.46,123.157,142.174,1154,-105.976,315.263,1198.27,-93.3273,212.786,1192.84,32.3986,481.382,870.034,12.8392,452.525,670.706,-2.72584,452.3,467.453,-9.13347,397.38,241.116,-68.3628,347.971,189.97,149.011,394.494,195.513,60.6134,95.4214,862.036,24.1584,126.487,669.976,-16.3936,123.601,463.618,-14.6069,174.029,220.064,-74.3,231.894,194.481,132.32,168.494,197.595
163,0,103.161,422.865,1160.47,123.174,142.161,1154,-105.978,315.22,1198.26,-93.3207,212.745,1192.84,32.3911,481.366,870.037,12.8414,452.514,670.708,-2.72437,452.293,467.455,-9.13275,397.378,241.117,-68.3588,347.968,189.967,149.011,394.494,195.514,60.6301,95.4115,862.031,24.1634,126.48,669.974,-16.3919,123.599,463.618,-14.607,174.029,220.063,-74.3036,231.892,194.483,132.32,168.494,197.594
164,0,103.138,422.847,1160.47,123.191,142.148,1154,-105.982,315.177,1198.25,-93.3156,212.704,1192.83,32.3822,481.351,870.041,12.843,452.503,670.71,-2.72322,452.286,467.457,-9.13208,397.376,241.118,-68.3548,347.966,189.963,149.011,394.494,195.514,60.6464,95.4015,862.027,24.1681,126.472,669.971,-16.3904,123.597,463.617,-14.607,174.028,220.063,-74.3072,231.89,194.484,132.32,168.494,197.594
165,0,103.113,422.83,1160.48,123.206,142.135,1154,-105.987,315.133,1198.24,-93.3117,212.662,1192.83,32.3719,481.335,870.045,12.844,452.492,670.712,-2.72238,452.279,467.458,-9.13146,397.375,241.118,-68.3506,347.963,189.96,149.011,394.494,195.514,60.6623,95.3913,862.022,24.1725,126.464,669.969,-16.3889,123.595,463.616,-14.6071,174.028,220.063,-74.3108,231.888,194.486,132.32,168.494,197.593
166,0,103.086,422.812,1160.49,123.22,142.123,1154,-105.994,315.089,1198.23,-93.3091,212.62,1192.82,32.3602,481.319,870.048,12.8446,452.481,670.714,-2.72185,452.272,467.46,-9.1309,397.373,241.119,-68.3465,347.961,189.956,149.011,394.493,195.514,60.6779,95.3808,862.018,24.1766,126.456,669.966,-16.3876,123.593,463.615,-14.6071,174.027,220.062,-74.3144,231.887,194.488,132.32,168.494,197.593
167,0,103.057,422.794,1160.49,123.233,142.11,1154,-106.002,315.045,1198.22,-93.3078,212.578,1192.82,32.3471,481.304,870.052,12.8445,452.47,670.716,-2.72163,452.265,467.462,-9.13039,397.371,241.12,-68.3422,347.958,189.953,149.011,394.493,195.515,60.693,95.3702,862.013,24.1805,126.448,669.964,-16.3865,123.591,463.614,-14.6072,174.027,220.062,-74.318,231.885,194.489,132.32,168.495,197.593
168,0,103.027,422.776,1160.5,123.244,142.098,1154,-106.012,315,1198.22,-93.3077,212.535,1192.81,32.3326,481.288,870.056,12.8439,452.458,670.718,-2.72172,452.258,467.464,-9.12994,397.369,241.121,-68.3378,347.955,189.949,149.012,394.493,195.515,60.7079,95.3594,862.009,24.1841,126.44,669.961,-16.3855,123.588,463.612,-14.6073,174.027,220.061,-74.3217,231.883,194.491,132.32,168.495,197.592
169,0,102.995,422.759,1160.51,123.255,142.085,1154,-106.024,314.955,1198.21,-93.309,212.492,1192.8,32.3168,481.272,870.06,12.8428,452.447,670.72,-2.72212,452.25,467.466,-9.12954,397.368,241.122,-68.3334,347.953,189.945,149.012,394.493,195.515,60.7223,95.3485,862.004,24.1875,126.431,669.959,-16.3847,123.585,463.611,-14.6073,174.026,220.061,-74.3253,231.881,194.493,132.32,168.495,197.592
170,0,102.961,422.741,1160.52,123.264,142.073,1153.99,-106.036,314.91,1198.2,-93.3114,212.449,1192.8,32.2995,481.256,870.064,12.8412,452.435,670.722,-2.72284,452.243,467.468,-9.12919,397.366,241.122,-68.3288,347.95,189.941,149.012,394.493,195.515,60.7364,95.3373,862,24.1906,126.423,669.956,-16.384,123.583,463.61,-14.6074,174.026,220.06,-74.329,231.879,194.494,132.32,168.495,197.592
171,0,102.926,422.723,1160.52,123.273,142.061,1153.99,-106.051,314.864,1198.19,-93.3152,212.405,1192.79,32.281,481.241,870.067,12.8389,452.423,670.724,-2.72387,452.235,467.471,-9.1289,397.364,241.123,-68.3242,347.947,189.937,149.012,394.493,195.516,60.7501,95.326,861.995,24.1934,126.414,669.954,-16.3834,123.58,463.609,-14.6075,174.025,220.06,-74.3327,231.877,194.496,132.32,168.495,197.591
172,0,102.889,422.706,1160.53,123.28,142.049,1153.99,-106.066,314.818,1198.18,-93.3201,212.361,1192.79,32.261,481.225,870.071,12.8362,452.411,670.726,-2.72521,452.228,467.473,-9.12866,397.362,241.124,-68.3195,347.944,189.933,149.012,394.493,195.516,60.7634,95.3145,861.991,24.196,126.405,669.952,-16.383,123.577,463.608,-14.6076,174.024,220.059,-74.3364,231.875,194.498,132.32,168.495,197.591
173,0,102.85,422.688,1160.54,123.286,142.037,1153.99,-106.083,314.771,1198.17,-93.3262,212.317,1192.78,32.2398,481.209,870.075,12.8329,452.398,670.729,-2.72687,452.22,467.475,-9.12847,397.361,241.125,-68.3148,347.941,189.929,149.012,394.493,195.516,60.7763,95.3028,861.986,24.1983,126.396,669.949,-16.3827,123.574,463.606,-14.6077,174.024,220.059,-74.3401,231.873,194.5,132.32,168.495,197.591
174,0,102.81,422.67,1160.55,123.291,142.025,1153.99,-106.102,314.724,1198.16,-93.3335,212.272,1192.77,32.2172,481.193,870.079,12.829,452.386,670.731,-2.72883,452.212,467.477,-9.12834,397.359,241.126,-68.3099,347.938,189.924,149.012,394.493,195.517,60.7889,95.2909,861.982,24.2004,126.386,669.947,-16.3826,123.57,463.605,-14.6079,174.023,220.058,-74.3439,231.871,194.501,132.32,168.496,197.59
175,0,102.768,422.653,1160.56,123.296,142.013,1153.99,-106.122,314.677,1198.16,-93.342,212.227,1192.77,32.1933,481.177,870.083,12.8246,452.373,670.733,-2.73111,452.204,467.48,-9.12826,397.357,241.127,-68.305,347.935,189.92,149.011,394.493,195.517,60.8011,95.2789,861.978,24.2022,126.377,669.944,-16.3827,123.567,463.603,-14.608,174.023,220.058,-74.3477,231.869,194.503,132.32,168.496,197.59
176,0,102.724,422.635,1160.57,123.299,142.001,1153.99,-106.143,314.63,1198.15,-93.3516,212.182,1192.76,32.168,481.161,870.087,12.8197,452.361,670.736,-2.7337,452.196,467.482,-9.12823,397.355,241.128,-68.3,347.932,189.915,149.011,394.493,195.518,60.8129,95.2667,861.973,24.2037,126.367,669.941,-16.3828,123.563,463.602,-14.6081,174.022,220.057,-74.3514,231.867,194.505,132.32,168.496,197.59
177,0,102.679,422.618,1160.57,123.301,141.99,1153.99,-106.165,314.582,1198.14,-93.3623,212.137,1192.76,32.1415,481.145,870.091,12.8142,452.348,670.738,-2.7366,452.187,467.484,-9.12826,397.353,241.129,-68.2949,347.929,189.91,149.011,394.493,195.518,60.8243,95.2542,861.969,24.205,126.357,669.939,-16.3831,123.56,463.6,-14.6083,174.021,220.056,-74.3552,231.865,194.506,132.32,168.496,197.589
178,0,102.633,422.6,1160.58,123.302,141.978,1153.99,-106.189,314.534,1198.13,-93.3742,212.091,1192.75,32.1138,481.129,870.095,12.8082,452.335,670.741,-2.73982,452.179,467.487,-9.12834,397.351,241.13,-68.2898,347.926,189.906,149.011,394.493,195.518,60.8354,95.2417,861.965,24.206,126.347,669.936,-16.3836,123.556,463.599,-14.6084,174.021,220.056,-74.359,231.863,194.508,132.32,168.496,197.589
179,0,102.585,422.583,1160.59,123.302,141.967,1154,-106.215,314.486,1198.12,-93.3871,212.045,1192.74,32.0847,481.113,870.099,12.8016,452.322,670.743,-2.74335,452.171,467.489,-9.12847,397.35,241.132,-68.2845,347.923,189.901,149.011,394.493,195.519,60.8461,95.2289,861.961,24.2067,126.336,669.934,-16.3842,123.552,463.597,-14.6086,174.02,220.055,-74.3629,231.861,194.51,132.32,168.496,197.589
180,0,102.536,422.565,1160.6,123.301,141.955,1154,-106.241,314.437,1198.11,-93.4012,211.998,1192.74,32.0545,481.097,870.103,12.7945,452.308,670.746,-2.74719,452.162,467.492,-9.12866,397.348,241.133,-68.2792,347.919,189.896,149.011,394.493,195.519,60.8564,95.216,861.956,24.2072,126.326,669.931,-16.385,123.548,463.596,-14.6087,174.019,220.055,-74.3667,231.859,194.511,132.32,168.496,197.588
181,0,102.485,422.548,1160.61,123.3,141.944,1154,-106.269,314.389,1198.11,-93.4162,211.952,1192.73,32.023,481.081,870.108,12.7868,452.295,670.749,-2.75134,452.153,467.494,-9.1289,397.346,241.134,-68.2738,347.916,189.89,149.011,394.494,195.52,60.8663,95.2029,861.952,24.2074,126.315,669.929,-16.3858,123.544,463.594,-14.6089,174.018,220.054,-74.3706,231.856,194.513,132.321,168.496,197.588
182,0,102.433,422.53,1160.62,123.297,141.933,1154,-106.298,314.339,1198.1,-93.4323,211.905,1192.73,31.9903,481.065,870.112,12.7786,452.281,670.751,-2.75581,452.145,467.497,-9.1292,397.344,241.135,-68.2683,347.913,189.885,149.01,394.494,195.52,60.8759,95.1896,861.948,24.2073,126.305,669.926,-16.3869,123.54,463.592,-14.6091,174.017,220.053,-74.3744,231.854,194.515,132.321,168.496,197.588
183,0,102.379,422.513,1160.63,123.294,141.922,1154,-106.328,314.29,1198.09,-93.4494,211.858,1192.72,31.9564,481.049,870.116,12.7698,452.267,670.754,-2.76058,452.136,467.5,-9.12954,397.342,241.136,-68.2627,347.91,189.88,149.01,394.494,195.521,60.885,95.1762,861.944,24.207,126.294,669.923,-16.3881,123.535,463.59,-14.6093,174.017,220.052,-74.3783,231.852,194.516,132.321,168.496,197.587
184,0,102.325,422.495,1160.64,123.289,141.911,1154,-106.359,314.24,1198.08,-93.4676,211.81,1192.72,31.9213,481.033,870.12,12.7605,452.253,670.757,-2.76567,452.127,467.502,-9.12994,397.34,241.138,-68.2571,347.906,189.874,149.01,394.494,195.521,60.8938,95.1626,861.94,24.2064,126.282,669.921,-16.3894,123.531,463.589,-14.6095,174.016,220.052,-74.3823,231.85,194.518,132.321,168.496,197.587
185,0,102.269,422.478,1160.65,123.284,141.9,1154,-106.392,314.19,1198.07,-93.4866,211.762,1192.71,31.8851,481.016,870.124,12.7506,452.239,670.76,-2.77108,452.117,467.505,-9.1304,397.338,241.139,-68.2514,347.903,189.869,149.01,394.494,195.522,60.9022,95.1488,861.936,24.2056,126.271,669.918,-16.3909,123.526,463.587,-14.6097,174.015,220.051,-74.3862,231.848,194.52,132.321,168.496,197.587
186,0,102.211,422.46,1160.66,123.278,141.889,1154,-106.426,314.14,1198.07,-93.5066,211.714,1192.7,31.8477,481,870.129,12.7402,452.225,670.763,-2.77679,452.108,467.508,-9.13091,397.336,241.14,-68.2456,347.899,189.863,149.009,394.494,195.522,60.9102,95.1348,861.931,24.2045,126.26,669.915,-16.3925,123.521,463.585,-14.6099,174.014,220.05,-74.3901,231.845,194.521,132.321,168.496,197.586
187,0,102.153,422.443,1160.67,123.271,141.878,1154,-106.461,314.09,1198.06,-93.5276,211.666,1192.7,31.8092,480.984,870.133,12.7293,452.21,670.765,-2.78282,452.099,467.511,-9.13147,397.335,241.141,-68.2397,347.896,189.857,149.009,394.495,195.523,60.9179,95.1207,861.927,24.2031,126.248,669.913,-16.3943,123.516,463.583,-14.6101,174.013,220.05,-74.3941,231.843,194.523,132.321,168.496,197.586
188,0,102.093,422.425,1160.68,123.264,141.867,1154,-106.497,314.039,1198.05,-93.5494,211.618,1192.69,31.7697,480.968,870.137,12.7178,452.196,670.768,-2.78916,452.089,467.514,-9.13209,397.333,241.143,-68.2337,347.892,189.851,149.009,394.495,195.523,60.9251,95.1063,861.923,24.2015,126.236,669.91,-16.3962,123.511,463.581,-14.6103,174.012,220.049,-74.398,231.841,194.525,132.321,168.496,197.586
189,0,102.032,422.408,1160.69,123.255,141.857,1154,-106.534,313.988,1198.04,-93.5721,211.569,1192.69,31.729,480.951,870.142,12.7058,452.181,670.771,-2.79582,452.08,467.517,-9.13275,397.331,241.144,-68.2277,347.888,189.845,149.008,394.495,195.524,60.932,95.0919,861.919,24.1996,126.224,669.907,-16.3982,123.506,463.579,-14.6106,174.011,220.048,-74.402,231.839,194.526,132.321,168.496,197.585
190,0,101.97,422.391,1160.7,123.246,141.846,1154,-106.572,313.937,1198.04,-93.5957,211.52,1192.68,31.6874,480.935,870.146,12.6932,452.166,670.774,-2.80278,452.07,467.52,-9.13348,397.329,241.145,-68.2216,347.885,189.839,149.008,394.496,195.525,60.9385,95.0772,861.915,24.1975,126.212,669.905,-16.4004,123.501,463.577,-14.6108,174.01,220.047,-74.4061,231.836,194.528,132.32,168.496,197.585
191,0,101.907,422.373,1160.71,123.236,141.835,1154.01,-106.611,313.886,1198.03,-93.6201,211.471,1192.68,31.6446,480.918,870.15,12.6801,452.151,670.778,-2.81006,452.061,467.523,-9.13425,397.327,241.147,-68.2154,347.881,189.833,149.007,394.496,195.525,60.9446,95.0624,861.911,24.195,126.199,669.902,-16.4028,123.496,463.574,-14.6111,174.009,220.046,-74.4101,231.834,194.53,132.32,168.496,197.584
192,0,101.843,422.356,1160.72,123.225,141.825,1154.01,-106.651,313.835,1198.02,-93.6453,211.421,1192.67,31.6009,480.902,870.155,12.6664,452.136,670.781,-2.81765,452.051,467.526,-9.13508,397.325,241.148,-68.2091,347.877,189.827,149.007,394.496,195.526,60.9503,95.0474,861.907,24.1924,126.187,669.899,-16.4053,123.49,463.572,-14.6113,174.008,220.046,-74.4141,231.832,194.531,132.32,168.496,197.584
193,0,101.778,422.338,1160.73,123.214,141.814,1154.01,-106.693,313.783,1198.01,-93.6714,211.372,1192.67,31.5562,480.886,870.159,12.6522,452.121,670.784,-2.82556,452.041,467.529,-9.13596,397.323,241.15,-68.2028,347.873,189.82,149.007,394.496,195.526,60.9556,95.0323,861.904,24.1894,126.174,669.896,-16.4079,123.485,463.57,-14.6116,174.007,220.045,-74.4182,231.829,194.533,132.32,168.496,197.584
194,0,101.712,422.321,1160.74,123.202,141.803,1154.01,-106.735,313.731,1198.01,-93.6981,211.322,1192.66,31.5105,480.869,870.164,12.6374,452.105,670.787,-2.83378,452.031,467.532,-9.1369,397.321,241.151,-68.1963,347.869,189.814,149.006,394.497,195.527,60.9606,95.017,861.9,24.1862,126.161,669.894,-16.4107,123.479,463.568,-14.6119,174.006,220.044,-74.4223,231.827,194.534,132.32,168.496,197.583
195,0,101.645,422.303,1160.75,123.189,141.793,1154.01,-106.778,313.679,1198,-93.7257,211.272,1192.66,31.4639,480.852,870.168,12.6221,452.09,670.79,-2.84231,452.02,467.535,-9.13788,397.319,241.153,-68.1898,347.866,189.807,149.006,394.497,195.528,60.9651,95.0015,861.896,24.1827,126.148,669.891,-16.4136,123.473,463.565,-14.6121,174.005,220.043,-74.4263,231.824,194.536,132.32,168.496,197.583
196,0,101.577,422.286,1160.76,123.176,141.782,1154.01,-106.822,313.627,1197.99,-93.7539,211.222,1192.65,31.4164,480.836,870.173,12.6063,452.074,670.794,-2.85115,452.01,467.538,-9.13892,397.317,241.154,-68.1832,347.862,189.8,149.005,394.498,195.528,60.9693,94.9858,861.892,24.179,126.135,669.888,-16.4167,123.467,463.563,-14.6124,174.004,220.042,-74.4305,231.822,194.538,132.32,168.496,197.583
197,0,101.508,422.268,1160.77,123.162,141.771,1154.01,-106.867,313.574,1197.99,-93.7828,211.171,1192.65,31.368,480.819,870.177,12.5899,452.058,670.797,-2.86031,452,467.542,-9.14002,397.315,241.156,-68.1765,347.858,189.793,149.005,394.498,195.529,60.9731,94.97,861.888,24.175,126.121,669.885,-16.4199,123.461,463.561,-14.6127,174.002,220.041,-74.4346,231.82,194.539,132.32,168.496,197.582
198,0,101.439,422.251,1160.78,123.148,141.76,1154.01,-106.912,313.522,1197.98,-93.8124,211.121,1192.64,31.3188,480.802,870.182,12.573,452.042,670.8,-2.86978,451.989,467.545,-9.14117,397.313,241.157,-68.1698,347.854,189.786,149.004,394.498,195.53,60.9765,94.954,861.885,24.1708,126.108,669.883,-16.4233,123.455,463.558,-14.613,174.001,220.04,-74.4387,231.817,194.541,132.32,168.496,197.582
199,0,101.368,422.233,1160.79,123.132,141.75,1154.02,-106.959,313.469,1197.97,-93.8426,211.07,1192.64,31.2687,480.786,870.186,12.5555,452.026,670.804,-2.87956,451.978,467.548,-9.14237,397.311,241.159,-68.1629,347.849,189.779,149.003,394.499,195.53,60.9795,94.9378,861.881,24.1662,126.094,669.88,-16.4268,123.448,463.556,-14.6133,174,220.039,-74.4429,231.815,194.543,132.32,168.496,197.582
200,0,101.297,422.215,1160.8,123.117,141.739,1154.02,-107.006,313.416,1197.97,-93.8735,211.019,1192.63,31.2177,480.769,870.191,12.5375,452.01,670.807,-2.88966,451.968,467.552,-9.14362,397.309,241.161,-68.156,347.845,189.772,149.003,394.499,195.531,60.9822,94.9215,861.877,24.1614,126.08,669.877,-16.4304,123.442,463.553,-14.6137,173.999,220.038,-74.447,231.812,194.544,132.32,168.496,197.581
201,0,101.226,422.197,1160.81,123.1,141.728,1154.02,-107.054,313.363,1197.96,-93.9049,210.968,1192.63,31.166,480.752,870.195,12.5189,451.993,670.811,-2.90007,451.957,467.555,-9.14493,397.307,241.162,-68.149,347.841,189.765,149.002,394.5,195.532,60.9844,94.905,861.874,24.1564,126.066,669.874,-16.4342,123.435,463.551,-14.614,173.998,220.037,-74.4512,231.81,194.546,132.32,168.496,197.581
202,0,101.153,422.18,1160.82,123.084,141.717,1154.02,-107.103,313.31,1197.96,-93.937,210.916,1192.62,31.1136,480.735,870.2,12.4999,451.977,670.814,-2.91079,451.946,467.559,-9.14629,397.305,241.164,-68.142,347.837,189.757,149.002,394.5,195.533,60.9863,94.8884,861.87,24.1511,126.051,669.871,-16.4382,123.428,463.548,-14.6143,173.996,220.036,-74.4554,231.807,194.548,132.32,168.496,197.581
203,0,101.08,422.162,1160.83,123.066,141.706,1154.02,-107.152,313.256,1197.95,-93.9695,210.865,1192.62,31.0604,480.718,870.205,12.4802,451.96,670.818,-2.92183,451.935,467.562,-9.14771,397.303,241.166,-68.1348,347.833,189.75,149.001,394.501,195.533,60.9877,94.8716,861.866,24.1455,126.037,669.868,-16.4423,123.421,463.545,-14.6147,173.995,220.035,-74.4597,231.804,194.549,132.32,168.496,197.58
204,0,101.006,422.144,1160.84,123.049,141.695,1154.02,-107.203,313.203,1197.94,-94.0026,210.813,1192.61,31.0065,480.701,870.209,12.46,451.943,670.822,-2.93317,451.924,467.566,-9.14917,397.301,241.167,-68.1276,347.828,189.742,149,394.501,195.534,60.9888,94.8546,861.863,24.1397,126.022,669.865,-16.4465,123.414,463.543,-14.615,173.994,220.034,-74.4639,231.802,194.551,132.32,168.495,197.58
205,0,100.932,422.126,1160.85,123.031,141.684,1154.02,-107.254,313.149,1197.94,-94.0362,210.761,1192.61,30.9519,480.684,870.214,12.4393,451.926,670.825,-2.94484,451.912,467.57,-9.15069,397.299,241.169,-68.1203,347.824,189.735,149,394.502,195.535,60.9895,94.8374,861.859,24.1336,126.007,669.862,-16.4509,123.407,463.54,-14.6154,173.992,220.033,-74.4682,231.799,194.552,132.32,168.495,197.579
206,0,100.857,422.108,1160.86,123.012,141.672,1154.02,-107.305,313.095,1197.93,-94.0703,210.709,1192.6,30.8967,480.666,870.219,12.4181,451.909,670.829,-2.95681,451.901,467.573,-9.15227,397.297,241.171,-68.1129,347.819,189.727,148.999,394.502,195.536,60.9898,94.8201,861.856,24.1272,125.992,669.86,-16.4554,123.4,463.537,-14.6157,173.991,220.032,-74.4724,231.797,194.554,132.32,168.495,197.579
207,0,100.782,422.09,1160.87,122.993,141.661,1154.02,-107.357,313.041,1197.93,-94.1048,210.657,1192.6,30.8408,480.649,870.224,12.3963,451.892,670.833,-2.9691,451.889,467.577,-9.1539,397.295,241.173,-68.1054,347.815,189.719,148.998,394.503,195.536,60.9897,94.8027,861.852,24.1206,125.977,669.857,-16.4601,123.393,463.534,-14.6161,173.989,220.031,-74.4767,231.794,194.556,132.32,168.495,197.579
208,0,100.706,422.071,1160.88,122.973,141.649,1154.03,-107.41,312.987,1197.92,-94.1397,210.605,1192.6,30.7843,480.632,870.228,12.3739,451.874,670.837,-2.9817,451.878,467.581,-9.15557,397.293,241.175,-68.0979,347.811,189.711,148.997,394.503,195.537,60.9892,94.785,861.849,24.1137,125.962,669.854,-16.4649,123.385,463.531,-14.6165,173.988,220.03,-74.481,231.791,194.557,132.32,168.495,197.578
209,0,100.63,422.053,1160.89,122.954,141.638,1154.03,-107.463,312.933,1197.92,-94.1751,210.552,1192.59,30.7273,480.614,870.233,12.3511,451.857,670.84,-2.99462,451.866,467.585,-9.15731,397.291,241.176,-68.0903,347.806,189.703,148.997,394.504,195.538,60.9884,94.7672,861.845,24.1065,125.946,669.851,-16.4698,123.378,463.528,-14.6169,173.987,220.029,-74.4853,231.789,194.559,132.319,168.495,197.578
210,0,100.554,422.035,1160.9,122.933,141.626,1154.03,-107.517,312.879,1197.91,-94.2108,210.499,1192.59,30.6697,480.597,870.238,12.3277,451.839,670.844,-3.00784,451.854,467.589,-9.1591,397.289,241.178,-68.0826,347.801,189.694,148.996,394.505,195.539,60.9871,94.7493,861.842,24.0991,125.93,669.848,-16.4749,123.37,463.526,-14.6173,173.985,220.028,-74.4897,231.786,194.561,132.319,168.495,197.578
211,0,100.477,422.016,1160.91,122.913,141.614,1154.03,-107.571,312.824,1197.91,-94.2469,210.447,1192.58,30.6116,480.579,870.243,12.3037,451.821,670.848,-3.02138,451.842,467.593,-9.16093,397.287,241.18,-68.0748,347.797,189.686,148.995,394.505,195.54,60.9855,94.7312,861.839,24.0914,125.915,669.845,-16.4802,123.362,463.522,-14.6177,173.984,220.027,-74.494,231.783,194.562,132.319,168.494,197.577
212,0,100.4,421.997,1160.92,122.892,141.602,1154.03,-107.626,312.77,1197.9,-94.2833,210.394,1192.58,30.553,480.561,870.248,12.2792,451.803,670.852,-3.03524,451.83,467.597,-9.16283,397.285,241.182,-68.0669,347.792,189.678,148.994,394.506,195.541,60.9834,94.7129,861.835,24.0835,125.898,669.842,-16.4856,123.354,463.519,-14.6181,173.982,220.026,-74.4984,231.78,194.564,132.319,168.494,197.577
213,0,100.322,421.979,1160.93,122.871,141.589,1154.03,-107.681,312.715,1197.9,-94.32,210.341,1192.58,30.494,480.543,870.252,12.2542,451.785,670.856,-3.04941,451.818,467.601,-9.16477,397.283,241.184,-68.059,347.787,189.669,148.993,394.507,195.542,60.981,94.6945,861.832,24.0753,125.882,669.839,-16.4911,123.346,463.516,-14.6185,173.98,220.025,-74.5028,231.778,194.566,132.319,168.494,197.576
214,0,100.245,421.96,1160.94,122.849,141.577,1154.03,-107.736,312.661,1197.89,-94.357,210.288,1192.57,30.4345,480.525,870.257,12.2287,451.766,670.86,-3.06389,451.806,467.605,-9.16677,397.28,241.186,-68.051,347.783,189.66,148.992,394.507,195.542,60.9782,94.6758,861.829,24.0668,125.866,669.836,-16.4968,123.338,463.513,-14.6189,173.979,220.023,-74.5072,231.775,194.567,132.319,168.494,197.576
215,0,100.167,421.941,1160.95,122.828,141.564,1154.03,-107.792,312.606,1197.89,-94.3943,210.234,1192.57,30.3746,480.507,870.262,12.2026,451.748,670.865,-3.07868,451.793,467.609,-9.16882,397.278,241.188,-68.0429,347.778,189.651,148.991,394.508,195.543,60.975,94.6571,861.826,24.0581,125.849,669.833,-16.5026,123.329,463.51,-14.6194,173.977,220.022,-74.5116,231.772,194.569,132.319,168.494,197.576
216,0,100.089,421.921,1160.96,122.806,141.551,1154.03,-107.849,312.551,1197.89,-94.4319,210.181,1192.56,30.3143,480.489,870.267,12.1759,451.729,670.869,-3.09379,451.781,467.613,-9.17093,397.276,241.19,-68.0347,347.773,189.643,148.991,394.509,195.544,60.9714,94.6382,861.822,24.0491,125.832,669.83,-16.5086,123.321,463.507,-14.6198,173.976,220.021,-74.5161,231.769,194.57,132.319,168.493,197.575
217,0,100.011,421.902,1160.97,122.783,141.538,1154.03,-107.905,312.496,1197.88,-94.4696,210.128,1192.56,30.2537,480.47,870.272,12.1488,451.711,670.873,-3.10921,451.768,467.617,-9.17309,397.274,241.192,-68.0265,347.768,189.634,148.99,394.509,195.545,60.9674,94.6191,861.819,24.0398,125.815,669.827,-16.5147,123.312,463.503,-14.6203,173.974,220.02,-74.5205,231.766,194.572,132.319,168.493,197.575
218,0,99.9329,421.883,1160.98,122.761,141.525,1154.03,-107.962,312.441,1197.88,-94.5075,210.074,1192.56,30.1927,480.452,870.277,12.1211,451.692,670.877,-3.12495,451.756,467.621,-9.1753,397.272,241.194,-68.0181,347.763,189.624,148.989,394.51,195.546,60.9631,94.5998,861.816,24.0303,125.798,669.824,-16.521,123.303,463.5,-14.6207,173.972,220.019,-74.525,231.764,194.574,132.318,168.493,197.575
219,0,99.8548,421.863,1160.99,122.738,141.511,1154.03,-108.019,312.386,1197.88,-94.5457,210.02,1192.55,30.1315,480.433,870.282,12.0928,451.673,670.882,-3.141,451.743,467.626,-9.17756,397.27,241.196,-68.0097,347.758,189.615,148.988,394.511,195.547,60.9583,94.5804,861.813,24.0205,125.781,669.821,-16.5274,123.295,463.497,-14.6212,173.971,220.017,-74.5295,231.761,194.575,132.318,168.493,197.574
220,0,99.7766,421.843,1161,122.715,141.497,1154.03,-108.077,312.331,1197.87,-94.5839,209.967,1192.55,30.0699,480.415,870.287,12.064,451.654,670.886,-3.15736,451.73,467.63,-9.17988,397.268,241.198,-68.0012,347.753,189.606,148.987,394.512,195.548,60.9532,94.5609,861.81,24.0105,125.763,669.817,-16.5339,123.286,463.493,-14.6217,173.969,220.016,-74.534,231.758,194.577,132.318,168.492,197.574
221,0,99.6985,421.823,1161,122.692,141.483,1154.03,-108.134,312.276,1197.87,-94.6223,209.913,1192.55,30.0081,480.396,870.292,12.0347,451.634,670.89,-3.17404,451.717,467.634,-9.18225,397.266,241.2,-67.9927,347.748,189.596,148.986,394.513,195.549,60.9476,94.5412,861.807,24.0001,125.746,669.814,-16.5406,123.276,463.49,-14.6221,173.967,220.015,-74.5385,231.755,194.578,132.318,168.492,197.573
222,0,99.6205,421.803,1161.01,122.669,141.468,1154.04,-108.192,312.221,1197.87,-94.6609,209.859,1192.54,29.9461,480.377,870.297,12.0049,451.615,670.895,-3.19103,451.704,467.639,-9.18467,397.263,241.203,-67.984,347.743,189.587,148.985,394.513,195.55,60.9417,94.5213,861.804,23.9896,125.728,669.811,-16.5475,123.267,463.486,-14.6226,173.965,220.013,-74.543,231.752,194.58,132.318,168.492,197.573
223,0,99.5425,421.782,1161.02,122.646,141.454,1154.04,-108.25,312.166,1197.86,-94.6995,209.805,1192.54,29.884,480.358,870.302,11.9745,451.595,670.899,-3.20833,451.69,467.643,-9.18715,397.261,241.205,-67.9753,347.738,189.577,148.983,394.514,195.551,60.9354,94.5013,861.801,23.9787,125.71,669.808,-16.5545,123.258,463.483,-14.6231,173.964,220.012,-74.5476,231.749,194.582,132.318,168.492,197.573
224,0,99.4647,421.762,1161.03,122.622,141.439,1154.04,-108.308,312.111,1197.86,-94.7382,209.75,1192.54,29.8216,480.339,870.307,11.9436,451.576,670.904,-3.22594,451.677,467.648,-9.18967,397.259,241.207,-67.9665,347.732,189.568,148.982,394.515,195.552,60.9287,94.481,861.798,23.9676,125.692,669.805,-16.5616,123.248,463.479,-14.6236,173.962,220.011,-74.5521,231.746,194.583,132.318,168.491,197.572
225,0,99.387,421.741,1161.04,122.599,141.423,1154.04,-108.367,312.055,1197.86,-94.7769,209.696,1192.53,29.7591,480.319,870.312,11.9122,451.556,670.908,-3.24387,451.664,467.652,-9.19226,397.257,241.209,-67.9576,347.727,189.558,148.981,394.516,195.553,60.9216,94.4607,861.795,23.9563,125.673,669.802,-16.5689,123.239,463.476,-14.6241,173.96,220.01,-74.5567,231.743,194.585,132.317,168.491,197.572
226,0,99.3096,421.72,1161.05,122.575,141.408,1154.04,-108.425,312,1197.86,-94.8157,209.642,1192.53,29.6965,480.3,870.317,11.8802,451.536,670.913,-3.26212,451.65,467.657,-9.19489,397.255,241.212,-67.9487,347.722,189.548,148.98,394.517,195.554,60.9141,94.4402,861.792,23.9446,125.655,669.799,-16.5763,123.229,463.472,-14.6247,173.958,220.008,-74.5613,231.74,194.587,132.317,168.491,197.572
227,0,99.2324,421.699,1161.06,122.551,141.392,1154.04,-108.483,311.945,1197.86,-94.8544,209.588,1192.53,29.6338,480.28,870.322,11.8477,451.516,670.917,-3.28067,451.636,467.661,-9.19758,397.253,241.214,-67.9396,347.716,189.538,148.979,394.518,195.555,60.9063,94.4195,861.789,23.9327,125.636,669.796,-16.5839,123.219,463.468,-14.6252,173.956,220.007,-74.5659,231.737,194.588,132.317,168.49,197.571
228,0,99.1554,421.678,1161.07,122.528,141.375,1154.04,-108.542,311.889,1197.85,-94.8932,209.533,1192.52,29.571,480.26,870.327,11.8147,451.496,670.922,-3.29954,451.623,467.666,-9.20032,397.25,241.216,-67.9305,347.711,189.528,148.978,394.519,195.556,60.898,94.3987,861.786,23.9206,125.617,669.792,-16.5916,123.209,463.464,-14.6257,173.954,220.005,-74.5706,231.734,194.59,132.317,168.49,197.571
229,0,99.0787,421.656,1161.07,122.504,141.359,1154.04,-108.6,311.834,1197.85,-94.932,209.479,1192.52,29.5082,480.24,870.332,11.7812,451.475,670.927,-3.31873,451.609,467.671,-9.20311,397.248,241.218,-67.9213,347.706,189.517,148.977,394.52,195.558,60.8893,94.3777,861.784,23.9081,125.598,669.789,-16.5995,123.199,463.461,-14.6263,173.952,220.004,-74.5752,231.731,194.591,132.317,168.49,197.57
230,0,99.0024,421.634,1161.08,122.48,141.342,1154.03,-108.659,311.779,1197.85,-94.9707,209.424,1192.52,29.4454,480.22,870.337,11.7471,451.455,670.932,-3.33823,451.595,467.676,-9.20596,397.246,241.221,-67.912,347.7,189.507,148.975,394.521,195.559,60.8803,94.3566,861.781,23.8955,125.579,669.786,-16.6075,123.189,463.457,-14.6268,173.95,220.003,-74.5799,231.728,194.593,132.317,168.49,197.57
231,0,98.9264,421.612,1161.09,122.456,141.324,1154.03,-108.718,311.723,1197.85,-95.0093,209.369,1192.51,29.3825,480.199,870.342,11.7124,451.434,670.936,-3.35804,451.581,467.68,-9.20886,397.244,241.223,-67.9027,347.695,189.496,148.974,394.522,195.56,60.8709,94.3353,861.778,23.8825,125.56,669.783,-16.6156,123.179,463.453,-14.6274,173.948,220.001,-74.5846,231.725,194.594,132.316,168.489,197.57
232,0,98.8508,421.59,1161.1,122.432,141.307,1154.03,-108.776,311.668,1197.85,-95.0479,209.315,1192.51,29.3197,480.179,870.348,11.6773,451.413,670.941,-3.37816,451.566,467.685,-9.21181,397.242,241.226,-67.8933,347.689,189.486,148.973,394.523,195.561,60.861,94.3138,861.776,23.8693,125.54,669.779,-16.6239,123.168,463.449,-14.6279,173.946,220,-74.5893,231.722,194.596,132.316,168.489,197.569
233,0,98.7756,421.567,1161.1,122.408,141.288,1154.03,-108.834,311.612,1197.85,-95.0864,209.26,1192.51,29.257,480.158,870.353,11.6416,451.392,670.946,-3.3986,451.552,467.69,-9.21482,397.239,241.228,-67.8838,347.683,189.475,148.972,394.524,195.562,60.8508,94.2922,861.773,23.8558,125.52,669.776,-16.6324,123.157,463.445,-14.6285,173.944,219.998,-74.594,231.718,194.598,132.316,168.488,197.569
234,0,98.7008,421.544,1161.11,122.384,141.27,1154.03,-108.893,311.557,1197.85,-95.1247,209.205,1192.51,29.1944,480.137,870.358,11.6054,451.371,670.951,-3.41935,451.538,467.695,-9.21788,397.237,241.23,-67.8742,347.678,189.464,148.97,394.525,195.563,60.8402,94.2704,861.77,23.8421,125.5,669.773,-16.6409,123.147,463.441,-14.6291,173.942,219.997,-74.5987,231.715,194.599,132.316,168.488,197.568
235,0,98.6265,421.521,1161.12,122.36,141.251,1154.03,-108.951,311.502,1197.84,-95.163,209.15,1192.5,29.1318,480.116,870.363,11.5687,451.35,670.956,-3.44042,451.523,467.7,-9.22099,397.235,241.233,-67.8645,347.672,189.453,148.969,394.526,195.564,60.8293,94.2485,861.768,23.8281,125.48,669.77,-16.6497,123.136,463.437,-14.6297,173.94,219.995,-74.6035,231.712,194.601,132.316,168.488,197.568
236,0,98.5527,421.498,1161.13,122.336,141.232,1154.03,-109.009,311.446,1197.84,-95.201,209.095,1192.5,29.0694,480.095,870.368,11.5314,451.329,670.961,-3.4618,451.508,467.705,-9.22416,397.233,241.235,-67.8548,347.666,189.442,148.968,394.527,195.566,60.8179,94.2264,861.765,23.8138,125.46,669.766,-16.6585,123.125,463.433,-14.6303,173.938,219.994,-74.6083,231.709,194.602,132.316,168.487,197.568
237,0,98.4794,421.474,1161.13,122.313,141.212,1154.03,-109.067,311.391,1197.84,-95.239,209.04,1192.5,29.0071,480.073,870.373,11.4936,451.307,670.966,-3.48349,451.494,467.71,-9.22737,397.23,241.238,-67.845,347.66,189.431,148.966,394.528,195.567,60.8061,94.2041,861.763,23.7993,125.439,669.763,-16.6676,123.114,463.428,-14.6309,173.936,219.992,-74.613,231.706,194.604,132.315,168.487,197.567
238,0,98.4067,421.45,1161.14,122.289,141.192,1154.03,-109.125,311.336,1197.84,-95.2767,208.985,1192.5,28.9449,480.052,870.379,11.4553,451.286,670.971,-3.5055,451.479,467.715,-9.23064,397.228,241.241,-67.8351,347.655,189.42,148.965,394.529,195.568,60.794,94.1818,861.76,23.7845,125.419,669.76,-16.6767,123.103,463.424,-14.6315,173.934,219.991,-74.6178,231.702,194.606,132.315,168.487,197.567
239,0,98.3345,421.426,1161.15,122.265,141.171,1154.03,-109.183,311.28,1197.84,-95.3143,208.93,1192.49,28.883,480.03,870.384,11.4165,451.264,670.977,-3.52782,451.464,467.721,-9.23397,397.226,241.243,-67.8251,347.649,189.409,148.964,394.53,195.569,60.7814,94.1592,861.758,23.7694,125.398,669.756,-16.686,123.091,463.42,-14.6321,173.932,219.989,-74.6226,231.699,194.607,132.315,168.486,197.567
240,0,98.2629,421.402,1161.15,122.242,141.15,1154.03,-109.24,311.225,1197.84,-95.3517,208.875,1192.49,28.8213,480.008,870.389,11.3771,451.242,670.982,-3.55045,451.449,467.726,-9.23734,397.223,241.246,-67.815,347.643,189.397,148.962,394.531,195.57,60.7685,94.1365,861.755,23.7541,125.377,669.753,-16.6955,123.08,463.416,-14.6327,173.929,219.988,-74.6275,231.696,194.609,132.315,168.486,197.566
241,0,98.192,421.377,1161.16,122.218,141.128,1154.03,-109.297,311.17,1197.84,-95.3888,208.82,1192.49,28.7598,479.986,870.394,11.3372,451.22,670.987,-3.5734,451.434,467.731,-9.24077,397.221,241.248,-67.8049,347.637,189.386,148.961,394.532,195.572,60.7552,94.1136,861.753,23.7385,125.356,669.75,-16.7051,123.068,463.411,-14.6334,173.927,219.986,-74.6323,231.693,194.61,132.314,168.485,197.566
242,0,98.1217,421.352,1161.17,122.195,141.106,1154.02,-109.354,311.114,1197.84,-95.4257,208.765,1192.49,28.6985,479.963,870.4,11.2968,451.198,670.992,-3.59666,451.418,467.736,-9.24426,397.219,241.251,-67.7947,347.631,189.374,148.959,394.533,195.573,60.7414,94.0906,861.75,23.7227,125.335,669.746,-16.7148,123.056,463.407,-14.634,173.925,219.984,-74.6372,231.689,194.612,132.314,168.485,197.565
243,0,98.0521,421.326,1161.17,122.171,141.084,1154.02,-109.411,311.059,1197.84,-95.4624,208.71,1192.48,28.6375,479.94,870.405,11.2559,451.176,670.998,-3.62024,451.403,467.742,-9.24779,397.217,241.254,-67.7844,347.625,189.362,148.958,394.535,195.574,60.7273,94.0674,861.748,23.7066,125.313,669.743,-16.7247,123.045,463.402,-14.6346,173.923,219.983,-74.6421,231.686,194.614,132.314,168.484,197.565
244,0,97.9831,421.301,1161.18,122.148,141.061,1154.02,-109.468,311.004,1197.85,-95.4988,208.655,1192.48,28.5768,479.918,870.41,11.2144,451.153,671.003,-3.64413,451.387,467.747,-9.25138,397.214,241.256,-67.7741,347.619,189.35,148.956,394.536,195.575,60.7129,94.0441,861.746,23.6902,125.291,669.74,-16.7348,123.033,463.398,-14.6353,173.92,219.981,-74.647,231.683,194.615,132.314,168.484,197.565
245,0,97.9149,421.275,1161.18,122.125,141.037,1154.02,-109.524,310.949,1197.85,-95.5349,208.6,1192.48,28.5164,479.894,870.416,11.1724,451.13,671.009,-3.66833,451.372,467.752,-9.25502,397.212,241.259,-67.7636,347.612,189.338,148.955,394.537,195.577,60.698,94.0206,861.744,23.6736,125.27,669.736,-16.745,123.021,463.393,-14.636,173.918,219.98,-74.6519,231.679,194.617,132.314,168.484,197.564
246,0,97.8474,421.249,1161.19,122.102,141.013,1154.02,-109.58,310.894,1197.85,-95.5708,208.545,1192.48,28.4563,479.871,870.421,11.1299,451.108,671.014,-3.69285,451.356,467.758,-9.25871,397.21,241.262,-67.7531,347.606,189.326,148.953,394.538,195.578,60.6827,93.9969,861.741,23.6567,125.247,669.733,-16.7553,123.008,463.389,-14.6366,173.916,219.978,-74.6568,231.676,194.618,132.313,168.483,197.564
247,0,97.7806,421.222,1161.19,122.079,140.988,1154.02,-109.635,310.839,1197.85,-95.6063,208.49,1192.48,28.3965,479.848,870.426,11.0868,451.085,671.02,-3.71768,451.34,467.763,-9.26246,397.207,241.265,-67.7425,347.6,189.314,148.952,394.54,195.579,60.6671,93.9732,861.739,23.6395,125.225,669.729,-16.7658,122.996,463.384,-14.6373,173.913,219.976,-74.6618,231.672,194.62,132.313,168.483,197.563
248,0,97.7146,421.195,1161.2,122.056,140.963,1154.01,-109.691,310.784,1197.85,-95.6416,208.434,1192.47,28.3371,479.824,870.431,11.0433,451.062,671.025,-3.74283,451.324,467.769,-9.26626,397.205,241.267,-67.7318,347.594,189.302,148.95,394.541,195.581,60.651,93.9492,861.737,23.6221,125.203,669.726,-16.7764,122.984,463.38,-14.638,173.911,219.975,-74.6667,231.669,194.621,132.313,168.482,197.563
249,0,97.6494,421.168,1161.2,122.034,140.938,1154.01,-109.746,310.729,1197.85,-95.6766,208.379,1192.47,28.2781,479.8,870.437,10.9992,451.039,671.031,-3.76828,451.308,467.775,-9.27011,397.203,241.27,-67.7211,347.587,189.289,148.949,394.542,195.582,60.6346,93.9251,861.735,23.6044,125.18,669.722,-16.7871,122.971,463.375,-14.6387,173.909,219.973,-74.6717,231.666,194.623,132.313,168.482,197.563
250,0,97.585,421.14,1161.21,122.012,140.912,1154.01,-109.8,310.674,1197.85,-95.7112,208.324,1192.47,28.2195,479.776,870.442,10.9546,451.016,671.036,-3.79406,451.292,467.78,-9.27401,397.2,241.273,-67.7102,347.581,189.277,148.947,394.543,195.583,60.6178,93.9008,861.733,23.5864,125.158,669.719,-16.798,122.958,463.37,-14.6394,173.906,219.971,-74.6767,231.662,194.625,132.312,168.481,197.562
251,0,97.5214,421.112,1161.21,121.989,140.885,1154.01,-109.855,310.619,1197.86,-95.7455,208.269,1192.47,28.1612,479.751,870.447,10.9094,450.992,671.042,-3.82014,451.276,467.786,-9.27797,397.198,241.276,-67.6993,347.574,189.264,148.945,394.545,195.585,60.6006,93.8764,861.731,23.5682,125.135,669.715,-16.8091,122.945,463.365,-14.6401,173.904,219.969,-74.6817,231.659,194.626,132.312,168.481,197.562
252,0,97.4587,421.084,1161.21,121.967,140.858,1154,-109.908,310.564,1197.86,-95.7794,208.214,1192.47,28.1034,479.727,870.453,10.8638,450.969,671.048,-3.84654,451.259,467.792,-9.28198,397.195,241.279,-67.6883,347.568,189.252,148.944,394.546,195.586,60.583,93.8518,861.729,23.5497,125.112,669.712,-16.8203,122.932,463.36,-14.6408,173.901,219.968,-74.6868,231.655,194.628,132.312,168.48,197.561
253,0,97.3968,421.055,1161.22,121.945,140.83,1154,-109.962,310.51,1197.86,-95.813,208.159,1192.47,28.0459,479.702,870.458,10.8176,450.945,671.054,-3.87325,451.243,467.798,-9.28605,397.193,241.282,-67.6773,347.561,189.239,148.942,394.547,195.588,60.565,93.8271,861.727,23.531,125.088,669.708,-16.8316,122.919,463.355,-14.6416,173.899,219.966,-74.6918,231.652,194.629,132.312,168.48,197.561
254,0,97.3358,421.026,1161.22,121.924,140.802,1154,-110.015,310.455,1197.86,-95.8462,208.103,1192.46,27.989,479.676,870.463,10.7709,450.921,671.06,-3.90028,451.226,467.803,-9.29016,397.191,241.285,-67.6661,347.555,189.226,148.94,394.549,195.589,60.5466,93.8022,861.725,23.512,125.065,669.705,-16.8431,122.906,463.351,-14.6423,173.896,219.964,-74.6969,231.648,194.631,132.311,168.479,197.561
255,0,97.2757,420.997,1161.22,121.902,140.773,1154,-110.068,310.4,1197.86,-95.8791,208.048,1192.46,27.9325,479.651,870.469,10.7237,450.897,671.065,-3.92762,451.21,467.809,-9.29433,397.188,241.287,-67.6549,347.548,189.213,148.938,394.55,195.59,60.5278,93.7772,861.723,23.4927,125.041,669.701,-16.8548,122.893,463.346,-14.643,173.893,219.962,-74.7019,231.644,194.632,132.311,168.479,197.56
256,0,97.2164,420.967,1161.23,121.881,140.744,1153.99,-110.12,310.346,1197.87,-95.9115,207.993,1192.46,27.8764,479.625,870.474,10.6759,450.873,671.071,-3.95528,451.193,467.815,-9.29855,397.186,241.29,-67.6436,347.542,189.2,148.937,394.551,195.592,60.5087,93.752,861.721,23.4732,125.018,669.698,-16.8665,122.879,463.341,-14.6438,173.891,219.961,-74.707,231.641,194.634,132.311,168.478,197.56
257,0,97.1581,420.937,1161.23,121.86,140.714,1153.99,-110.172,310.292,1197.87,-95.9436,207.938,1192.46,27.8208,479.6,870.479,10.6276,450.849,671.077,-3.98325,451.176,467.821,-9.30283,397.183,241.293,-67.6322,347.535,189.186,148.935,394.553,195.593,60.4892,93.7266,861.719,23.4534,124.994,669.694,-16.8785,122.866,463.336,-14.6445,173.888,219.959,-74.7122,231.637,194.636,132.311,168.478,197.559
258,0,97.1007,420.907,1161.23,121.839,140.684,1153.99,-110.223,310.237,1197.87,-95.9753,207.883,1192.46,27.7657,479.573,870.485,10.5789,450.825,671.083,-4.01153,451.159,467.827,-9.30716,397.181,241.296,-67.6208,347.528,189.173,148.933,394.554,195.595,60.4692,93.7011,861.717,23.4333,124.969,669.691,-16.8905,122.852,463.33,-14.6453,173.886,219.957,-74.7173,231.634,194.637,132.31,168.477,197.559
259,0,97.0443,420.876,1161.24,121.818,140.653,1153.99,-110.274,310.183,1197.88,-96.0066,207.827,1192.46,27.7112,479.547,870.49,10.5295,450.8,671.089,-4.04013,451.142,467.833,-9.31154,397.179,241.3,-67.6092,347.521,189.16,148.931,394.556,195.596,60.4489,93.6754,861.716,23.413,124.945,669.687,-16.9027,122.838,463.325,-14.6461,173.883,219.955,-74.7224,231.63,194.639,132.31,168.476,197.559
260,0,96.9888,420.845,1161.24,121.798,140.621,1153.98,-110.325,310.129,1197.88,-96.0375,207.772,1192.45,27.6571,479.52,870.496,10.4797,450.776,671.095,-4.06904,451.125,467.839,-9.31597,397.176,241.303,-67.5976,347.515,189.146,148.93,394.557,195.598,60.4282,93.6496,861.714,23.3924,124.921,669.683,-16.9151,122.824,463.32,-14.6469,173.88,219.953,-74.7276,231.626,194.64,132.31,168.476,197.558
261,0,96.9343,420.814,1161.24,121.778,140.589,1153.98,-110.375,310.075,1197.88,-96.068,207.717,1192.45,27.6035,479.494,870.501,10.4294,450.751,671.102,-4.09826,451.107,467.845,-9.32046,397.174,241.306,-67.5859,347.508,189.132,148.928,394.559,195.599,60.4071,93.6236,861.712,23.3716,124.896,669.68,-16.9276,122.81,463.315,-14.6476,173.878,219.951,-74.7328,231.623,194.642,132.309,168.475,197.558
262,0,96.8807,420.782,1161.24,121.758,140.556,1153.98,-110.424,310.021,1197.89,-96.0981,207.662,1192.45,27.5505,479.466,870.506,10.3785,450.726,671.108,-4.1278,451.09,467.852,-9.325,397.171,241.309,-67.5742,347.501,189.119,148.926,394.56,195.601,60.3857,93.5975,861.711,23.3504,124.871,669.676,-16.9403,122.796,463.31,-14.6484,173.875,219.949,-74.738,231.619,194.643,132.309,168.475,197.557
263,0,96.8282,420.75,1161.24,121.738,140.522,1153.97,-110.473,309.967,1197.89,-96.1277,207.607,1192.45,27.498,479.439,870.512,10.3271,450.701,671.114,-4.15765,451.072,467.858,-9.32959,397.169,241.312,-67.5623,347.494,189.105,148.924,394.562,195.602,60.3638,93.5712,861.709,23.3291,124.846,669.673,-16.953,122.782,463.304,-14.6492,173.872,219.947,-74.7432,231.615,194.645,132.309,168.474,197.557
264,0,96.7766,420.717,1161.24,121.718,140.488,1153.97,-110.522,309.913,1197.89,-96.1569,207.552,1192.45,27.4461,479.411,870.517,10.2752,450.676,671.12,-4.18781,451.055,467.864,-9.33423,397.166,241.315,-67.5504,347.487,189.091,148.922,394.563,195.604,60.3415,93.5448,861.707,23.3074,124.821,669.669,-16.966,122.767,463.299,-14.6501,173.869,219.945,-74.7484,231.611,194.646,132.309,168.474,197.557
265,0,96.726,420.684,1161.25,121.699,140.454,1153.96,-110.57,309.859,1197.9,-96.1857,207.497,1192.45,27.3947,479.384,870.523,10.2227,450.651,671.126,-4.21829,451.037,467.87,-9.33893,397.164,241.318,-67.5384,347.48,189.077,148.92,394.565,195.606,60.3189,93.5182,861.706,23.2855,124.796,669.665,-16.9791,122.753,463.293,-14.6509,173.867,219.944,-74.7536,231.608,194.648,132.308,168.473,197.556
266,0,96.6764,420.651,1161.25,121.68,140.419,1153.96,-110.617,309.805,1197.9,-96.214,207.442,1192.45,27.3439,479.355,870.528,10.1698,450.625,671.133,-4.24909,451.019,467.877,-9.34368,397.161,241.322,-67.5263,347.473,189.062,148.918,394.566,195.607,60.2959,93.4914,861.704,23.2633,124.77,669.662,-16.9923,122.738,463.288,-14.6517,173.864,219.942,-74.7589,231.604,194.65,132.308,168.472,197.556
267,0,96.6279,420.617,1161.25,121.661,140.383,1153.96,-110.664,309.752,1197.91,-96.2419,207.387,1192.45,27.2936,479.327,870.534,10.1163,450.6,671.139,-4.28019,451.001,467.883,-9.34849,397.159,241.325,-67.5142,347.465,189.048,148.916,394.568,195.609,60.2725,93.4645,861.703,23.2409,124.744,669.658,-17.0057,122.723,463.282,-14.6525,173.861,219.94,-74.7642,231.6,194.651,132.308,168.472,197.555
268,0,96.5803,420.583,1161.25,121.642,140.346,1153.95,-110.711,309.698,1197.91,-96.2693,207.332,1192.45,27.2439,479.298,870.539,10.0623,450.574,671.146,-4.31161,450.983,467.89,-9.35334,397.157,241.328,-67.5019,347.458,189.034,148.914,394.57,195.61,60.2487,93.4375,861.701,23.2182,124.719,669.654,-17.0192,122.708,463.277,-14.6534,173.858,219.938,-74.7695,231.596,194.653,132.307,168.471,197.555
269,0,96.5338,420.548,1161.25,121.624,140.309,1153.95,-110.757,309.645,1197.91,-96.2963,207.277,1192.44,27.1948,479.269,870.544,10.0078,450.548,671.152,-4.34335,450.965,467.896,-9.35825,397.154,241.331,-67.4896,347.451,189.019,148.912,394.571,195.612,60.2245,93.4103,861.7,23.1952,124.692,669.651,-17.0329,122.693,463.271,-14.6542,173.855,219.936,-74.7748,231.592,194.654,132.307,168.47,197.555
270,0,96.4884,420.513,1161.25,121.606,140.272,1153.95,-110.803,309.592,1197.92,-96.3228,207.222,1192.44,27.1463,479.24,870.55,9.95277,450.522,671.159,-4.3754,450.946,467.903,-9.36321,397.152,241.335,-67.4772,347.444,189.005,148.91,394.573,195.614,60.1999,93.3829,861.698,23.172,124.666,669.647,-17.0467,122.678,463.266,-14.6551,173.852,219.934,-74.7801,231.589,194.656,132.307,168.47,197.554
271,0,96.444,420.478,1161.25,121.588,140.234,1153.94,-110.848,309.538,1197.92,-96.3489,207.167,1192.44,27.0984,479.211,870.555,9.89721,450.496,671.165,-4.40776,450.928,467.909,-9.36823,397.149,241.338,-67.4647,347.436,188.99,148.908,394.574,195.615,60.1749,93.3554,861.697,23.1485,124.64,669.643,-17.0606,122.662,463.26,-14.6559,173.849,219.932,-74.7854,231.585,194.657,132.306,168.469,197.554
272,0,96.4006,420.443,1161.25,121.57,140.195,1153.94,-110.892,309.485,1197.93,-96.3745,207.112,1192.44,27.0511,479.181,870.561,9.84114,450.47,671.172,-4.44044,450.909,467.916,-9.3733,397.147,241.341,-67.4522,347.429,188.975,148.906,394.576,195.617,60.1496,93.3277,861.696,23.1248,124.613,669.639,-17.0747,122.647,463.254,-14.6568,173.846,219.929,-74.7908,231.581,194.659,132.306,168.468,197.553
273,0,96.3583,420.406,1161.25,121.553,140.155,1153.93,-110.936,309.432,1197.93,-96.3997,207.057,1192.44,27.0044,479.151,870.566,9.78455,450.443,671.179,-4.47343,450.891,467.923,-9.37842,397.144,241.345,-67.4396,347.422,188.96,148.904,394.578,195.618,60.1238,93.2999,861.694,23.1008,124.587,669.636,-17.089,122.631,463.249,-14.6577,173.843,219.927,-74.7962,231.577,194.66,132.306,168.468,197.553
274,0,96.317,420.37,1161.24,121.535,140.115,1153.93,-110.979,309.379,1197.94,-96.4244,207.003,1192.44,26.9583,479.121,870.572,9.72744,450.417,671.185,-4.50673,450.872,467.929,-9.38359,397.141,241.348,-67.4269,347.414,188.945,148.902,394.58,195.62,60.0977,93.2719,861.693,23.0765,124.56,669.632,-17.1034,122.616,463.243,-14.6586,173.84,219.925,-74.8016,231.573,194.662,132.305,168.467,197.552
275,0,96.2768,420.333,1161.24,121.519,140.074,1153.92,-111.022,309.326,1197.94,-96.4486,206.948,1192.44,26.9128,479.09,870.577,9.66981,450.39,671.192,-4.54035,450.853,467.936,-9.38882,397.139,241.352,-67.4141,347.407,188.93,148.9,394.581,195.622,60.0712,93.2438,861.692,23.0519,124.533,669.628,-17.1179,122.6,463.237,-14.6595,173.837,219.923,-74.807,231.569,194.663,132.305,168.466,197.552
276,0,96.2377,420.296,1161.24,121.502,140.033,1153.92,-111.065,309.274,1197.95,-96.4723,206.893,1192.44,26.8679,479.06,870.583,9.61166,450.363,671.199,-4.57428,450.834,467.943,-9.3941,397.136,241.355,-67.4012,347.399,188.915,148.897,394.583,195.624,60.0443,93.2155,861.691,23.0271,124.505,669.624,-17.1326,122.584,463.231,-14.6604,173.834,219.921,-74.8124,231.565,194.665,132.305,168.466,197.552
277,0,96.1997,420.258,1161.24,121.485,139.991,1153.91,-111.106,309.221,1197.96,-96.4956,206.838,1192.44,26.8236,479.029,870.588,9.55299,450.337,671.206,-4.60853,450.815,467.95,-9.39943,397.134,241.359,-67.3883,347.392,188.899,148.895,394.585,195.625,60.017,93.187,861.689,23.0021,124.478,669.62,-17.1474,122.568,463.225,-14.6613,173.831,219.919,-74.8178,231.561,194.667,132.304,168.465,197.551
278,0,96.1627,420.22,1161.24,121.469,139.948,1153.91,-111.148,309.169,1197.96,-96.5184,206.784,1192.44,26.78,478.997,870.594,9.4938,450.31,671.213,-4.64309,450.796,467.957,-9.40481,397.131,241.362,-67.3753,347.384,188.884,148.893,394.586,195.627,59.9893,93.1584,861.688,22.9767,124.45,669.617,-17.1624,122.552,463.219,-14.6622,173.828,219.917,-74.8233,231.557,194.668,132.304,168.464,197.551
279,0,96.1268,420.182,1161.24,121.453,139.905,1153.9,-111.188,309.116,1197.97,-96.5407,206.729,1192.44,26.737,478.966,870.599,9.43409,450.282,671.219,-4.67796,450.777,467.964,-9.41025,397.129,241.366,-67.3622,347.376,188.868,148.891,394.588,195.629,59.9613,93.1297,861.687,22.9511,124.422,669.613,-17.1775,122.535,463.213,-14.6631,173.825,219.915,-74.8288,231.553,194.67,132.304,168.464,197.55
280,0,96.092,420.143,1161.23,121.438,139.861,1153.9,-111.228,309.064,1197.97,-96.5625,206.674,1192.44,26.6946,478.934,870.605,9.37387,450.255,671.226,-4.71315,450.757,467.971,-9.41574,397.126,241.369,-67.349,347.368,188.853,148.889,394.59,195.631,59.9328,93.1007,861.686,22.9253,124.394,669.609,-17.1928,122.519,463.207,-14.6641,173.822,219.912,-74.8343,231.549,194.671,132.303,168.463,197.55
281,0,96.0583,420.104,1161.23,121.422,139.817,1153.89,-111.268,309.012,1197.98,-96.5839,206.62,1192.44,26.6529,478.902,870.61,9.31312,450.228,671.233,-4.74865,450.738,467.978,-9.42128,397.124,241.373,-67.3358,347.361,188.837,148.886,394.592,195.632,59.904,93.0717,861.685,22.8991,124.366,669.605,-17.2082,122.502,463.201,-14.665,173.818,219.91,-74.8398,231.545,194.673,132.303,168.462,197.55
282,0,96.0256,420.064,1161.23,121.407,139.772,1153.89,-111.307,308.96,1197.99,-96.6048,206.565,1192.43,26.6117,478.87,870.616,9.25186,450.2,671.24,-4.78446,450.718,467.985,-9.42688,397.121,241.376,-67.3225,347.353,188.821,148.884,394.594,195.634,59.8748,93.0425,861.684,22.8728,124.338,669.601,-17.2237,122.486,463.195,-14.666,173.815,219.908,-74.8453,231.541,194.674,132.302,168.461,197.549
283,0,95.994,420.024,1161.22,121.392,139.726,1153.88,-111.345,308.907,1197.99,-96.6252,206.511,1192.43,26.5712,478.837,870.621,9.19008,450.172,671.248,-4.82059,450.699,467.992,-9.43253,397.118,241.38,-67.309,347.345,188.805,148.882,394.596,195.636,59.8451,93.0131,861.683,22.8461,124.309,669.597,-17.2394,122.469,463.188,-14.6669,173.812,219.906,-74.8509,231.537,194.676,132.302,168.461,197.549
284,0,95.9636,419.984,1161.22,121.378,139.679,1153.88,-111.383,308.856,1198,-96.6451,206.456,1192.43,26.5314,478.804,870.627,9.12778,450.144,671.255,-4.85703,450.679,467.999,-9.43823,397.116,241.384,-67.2956,347.337,188.789,148.879,394.597,195.638,59.8152,92.9836,861.682,22.8192,124.281,669.593,-17.2552,122.452,463.182,-14.6679,173.809,219.904,-74.8564,231.533,194.677,132.302,168.46,197.548
285,0,95.9342,419.943,1161.22,121.363,139.632,1153.87,-111.421,308.804,1198.01,-96.6645,206.402,1192.43,26.4922,478.771,870.632,9.06496,450.116,671.262,-4.89379,450.659,468.006,-9.44398,397.113,241.387,-67.282,347.329,188.773,148.877,394.599,195.639,59.7848,92.9539,861.681,22.792,124.252,669.589,-17.2712,122.435,463.176,-14.6688,173.805,219.901,-74.862,231.529,194.679,132.301,168.459,197.548
286,0,95.9059,419.902,1161.21,121.349,139.585,1153.86,-111.457,308.752,1198.01,-96.6834,206.347,1192.43,26.4536,478.737,870.638,9.00162,450.088,671.269,-4.93086,450.639,468.013,-9.44979,397.111,241.391,-67.2684,347.321,188.756,148.875,394.601,195.641,59.754,92.924,861.68,22.7646,124.223,669.585,-17.2874,122.418,463.169,-14.6698,173.802,219.899,-74.8676,231.524,194.68,132.301,168.458,197.547
287,0,95.8787,419.86,1161.21,121.335,139.536,1153.86,-111.494,308.7,1198.02,-96.7019,206.293,1192.43,26.4157,478.704,870.643,8.93776,450.06,671.276,-4.96825,450.619,468.021,-9.45565,397.108,241.395,-67.2547,347.313,188.74,148.872,394.603,195.643,59.7228,92.894,861.68,22.7369,124.194,669.582,-17.3036,122.4,463.163,-14.6708,173.799,219.897,-74.8732,231.52,194.682,132.301,168.458,197.547
288,0,95.8526,419.818,1161.2,121.322,139.487,1153.85,-111.529,308.649,1198.03,-96.7199,206.238,1192.43,26.3784,478.67,870.649,8.87339,450.032,671.284,-5.00594,450.598,468.028,-9.46156,397.105,241.398,-67.2409,347.305,188.723,148.87,394.605,195.645,59.6913,92.8639,861.679,22.7089,124.164,669.578,-17.3201,122.383,463.157,-14.6718,173.795,219.895,-74.8788,231.516,194.683,132.3,168.457,197.547
289,0,95.8276,419.776,1161.2,121.309,139.438,1153.85,-111.564,308.598,1198.03,-96.7374,206.184,1192.43,26.3417,478.635,870.654,8.80849,450.003,671.291,-5.04396,450.578,468.036,-9.46753,397.103,241.402,-67.227,347.297,188.707,148.868,394.607,195.647,59.6594,92.8336,861.678,22.6807,124.135,669.574,-17.3366,122.365,463.15,-14.6728,173.792,219.892,-74.8844,231.512,194.685,132.3,168.456,197.546
290,0,95.8037,419.733,1161.19,121.295,139.388,1153.84,-111.599,308.546,1198.04,-96.7543,206.13,1192.43,26.3057,478.601,870.66,8.74308,449.974,671.299,-5.08228,450.558,468.043,-9.47354,397.1,241.406,-67.213,347.289,188.69,148.865,394.609,195.649,59.627,92.8031,861.677,22.6522,124.105,669.57,-17.3533,122.348,463.144,-14.6738,173.789,219.89,-74.8901,231.508,194.686,132.299,168.455,197.546
291,0,95.7809,419.69,1161.19,121.283,139.337,1153.83,-111.633,308.495,1198.05,-96.7709,206.075,1192.43,26.2703,478.566,870.665,8.67715,449.946,671.306,-5.12092,450.537,468.05,-9.47962,397.097,241.41,-67.199,347.281,188.673,148.863,394.611,195.651,59.5943,92.7725,861.677,22.6234,124.075,669.566,-17.3702,122.33,463.137,-14.6748,173.785,219.888,-74.8958,231.503,194.688,132.299,168.454,197.545
292,0,95.7592,419.647,1161.18,121.27,139.285,1153.83,-111.666,308.444,1198.06,-96.7869,206.021,1192.43,26.2356,478.531,870.671,8.6107,449.917,671.313,-5.15987,450.516,468.058,-9.48574,397.095,241.414,-67.1849,347.272,188.656,148.86,394.613,195.653,59.5612,92.7417,861.676,22.5944,124.045,669.562,-17.3872,122.312,463.13,-14.6759,173.782,219.885,-74.9015,231.499,194.689,132.299,168.453,197.545
293,0,95.7386,419.603,1161.18,121.258,139.233,1153.82,-111.699,308.393,1198.07,-96.8024,205.967,1192.43,26.2015,478.496,870.677,8.54373,449.888,671.321,-5.19914,450.496,468.065,-9.49192,397.092,241.418,-67.1707,347.264,188.639,148.858,394.615,195.655,59.5277,92.7108,861.675,22.5651,124.015,669.558,-17.4044,122.294,463.124,-14.6769,173.778,219.883,-74.9072,231.495,194.691,132.298,168.453,197.544
294,0,95.719,419.558,1161.17,121.246,139.18,1153.81,-111.732,308.342,1198.07,-96.8175,205.913,1192.43,26.1681,478.46,870.682,8.47624,449.858,671.329,-5.23872,450.475,468.073,-9.49815,397.089,241.421,-67.1565,347.256,188.622,148.855,394.617,195.656,59.4939,92.6797,861.675,22.5356,123.984,669.554,-17.4216,122.276,463.117,-14.6779,173.775,219.88,-74.9129,231.49,194.692,132.298,168.452,197.544
295,0,95.7006,419.513,1161.17,121.234,139.127,1153.81,-111.763,308.291,1198.08,-96.8321,205.859,1192.43,26.1353,478.424,870.688,8.40824,449.829,671.336,-5.27862,450.454,468.081,-9.50443,397.087,241.425,-67.1421,347.247,188.605,148.853,394.619,195.658,59.4596,92.6485,861.674,22.5057,123.954,669.55,-17.4391,122.257,463.11,-14.679,173.771,219.878,-74.9186,231.486,194.694,132.297,168.451,197.544
296,0,95.6833,419.468,1161.16,121.223,139.073,1153.8,-111.794,308.241,1198.09,-96.8461,205.805,1192.43,26.1031,478.388,870.693,8.33971,449.8,671.344,-5.31883,450.433,468.088,-9.51076,397.084,241.429,-67.1277,347.239,188.587,148.85,394.621,195.66,59.425,92.6171,861.674,22.4757,123.923,669.546,-17.4567,122.239,463.103,-14.68,173.768,219.876,-74.9244,231.482,194.695,132.297,168.45,197.543
297,0,95.6671,419.423,1161.15,121.211,139.018,1153.79,-111.825,308.19,1198.1,-96.8597,205.751,1192.43,26.0716,478.352,870.699,8.27067,449.77,671.352,-5.35935,450.411,468.096,-9.51715,397.081,241.433,-67.1132,347.23,188.57,148.847,394.623,195.662,59.3899,92.5856,861.673,22.4453,123.892,669.542,-17.4744,122.22,463.097,-14.6811,173.764,219.873,-74.9301,231.477,194.697,132.296,168.449,197.543
298,0,95.6519,419.377,1161.15,121.2,138.963,1153.79,-111.855,308.14,1198.11,-96.8728,205.697,1192.43,26.0407,478.315,870.704,8.20111,449.74,671.359,-5.40019,450.39,468.104,-9.52359,397.079,241.437,-67.0987,347.222,188.552,148.845,394.625,195.664,59.3545,92.5539,861.673,22.4147,123.861,669.537,-17.4923,122.202,463.09,-14.6822,173.76,219.871,-74.9359,231.473,194.698,132.296,168.448,197.542
299,0,95.6379,419.33,1161.14,121.19,138.907,1153.78,-111.884,308.089,1198.12,-96.8854,205.642,1192.43,26.0105,478.278,870.71,8.13103,449.71,671.367,-5.44134,450.369,468.112,-9.53009,397.076,241.441,-67.084,347.213,188.535,148.842,394.628,195.666,59.3187,92.522,861.672,22.3839,123.83,669.533,-17.5103,122.183,463.083,-14.6833,173.757,219.868,-74.9417,231.469,194.7,132.296,168.447,197.542
300,0,95.625,419.284,1161.13,121.179,138.85,1153.77,-111.913,308.039,1198.12,-96.8976,205.589,1192.43,25.9809,478.241,870.716,8.06043,449.68,671.375,-5.4828,450.347,468.12,-9.53663,397.073,241.445,-67.0693,347.205,188.517,148.839,394.63,195.668,59.2825,92.49,861.672,22.3527,123.798,669.529,-17.5284,122.164,463.076,-14.6843,173.753,219.866,-74.9476,231.464,194.701,132.295,168.447,197.541
301,0,95.6131,419.236,1161.12,121.169,138.793,1153.77,-111.942,307.989,1198.13,-96.9092,205.535,1192.43,25.9519,478.203,870.721,7.98931,449.65,671.383,-5.52458,450.326,468.128,-9.54323,397.07,241.449,-67.0545,347.196,188.499,148.837,394.632,195.67,59.2459,92.4579,861.672,22.3213,123.767,669.525,-17.5468,122.145,463.069,-14.6854,173.749,219.863,-74.9534,231.46,194.703,132.295,168.446,197.541
302,0,95.6024,419.189,1161.12,121.159,138.735,1153.76,-111.97,307.939,1198.14,-96.9204,205.481,1192.43,25.9236,478.165,870.727,7.91768,449.62,671.391,-5.56667,450.304,468.136,-9.54988,397.068,241.453,-67.0396,347.187,188.481,148.834,394.634,195.672,59.209,92.4256,861.672,22.2897,123.735,669.521,-17.5652,122.126,463.062,-14.6865,173.746,219.861,-74.9593,231.455,194.704,132.294,168.445,197.541
303,0,95.5928,419.141,1161.11,121.149,138.677,1153.75,-111.997,307.889,1198.15,-96.931,205.427,1192.43,25.896,478.128,870.732,7.84552,449.589,671.399,-5.60908,450.282,468.144,-9.55659,397.065,241.457,-67.0246,347.178,188.463,148.831,394.636,195.674,59.1716,92.3931,861.671,22.2577,123.703,669.517,-17.5838,122.106,463.055,-14.6877,173.742,219.858,-74.9651,231.451,194.706,132.294,168.444,197.54

