Trajectories
100
,,Subj:LASI,,,Subj:RASI,,,Subj:LPSI,,,Subj:RPSI,,,Subj:LTHI,,,Subj:LKNE,,,Subj:LTIB,,,Subj:LANK,,,Subj:LHEE,,,Subj:LTOE,,,Subj:RTHI,,,Subj:RKNE,,,Subj:RTIB,,,Subj:RANK,,,Subj:RHEE,,,Subj:RTOE,,,
Frame,Sub Frame,X,Y,Z,X,Y,Z,X,Y,Z,X,Y,Z,X,Y,Z,X,Y,Z,X,Y,Z,X,Y,Z,X,Y,Z,X,Y,Z,X,Y,Z,X,Y,Z,X,Y,Z,X,Y,Z,X,Y,Z,X,Y,Z
,,mm,mm,mm,mm,mm,mm,mm,mm,mm,mm,mm,mm,mm,mm,mm,mm,mm,mm,mm,mm,mm,mm,mm,mm,mm,mm,mm,mm,mm,mm,mm,mm,mm,mm,mm,mm,mm,mm,mm,mm,mm,mm,mm,mm,mm,mm,mm,mm
1,0,173.008,432.11,1149.05,180.098,162.827,1124.26,-30.4097,333.27,1215.34,-18.5078,229.402,1207.66,172.523,502.922,878.442,205.373,466.725,682.01,176.355,465.634,510.663,217.362,406.559,256.63,162.731,355.44,209.959,373.395,412.57,206.374,80.9292,123.74,846.03,24.1552,155.987,661.576,-54.4126,157.073,461.93,-121.65,204.52,260.051,-200.923,238.822,232.142,8.18847,224.105,192.988
2,0,174.79,433.01,1149.19,181.442,163.969,1124.45,-28.9191,334.609,1214.97,-17.1807,230.622,1207.2,171.701,503.357,877.689,201.396,467.592,680.983,171.513,466.324,509.324,210.613,406.096,254.822,155.866,355.014,208.044,366.976,412.591,205.285,79.5157,124.214,845.669,22.0928,157.437,661.189,-58.8562,157.85,462.414,-128.423,204.34,261.194,-208.375,238.435,233.783,1.4983,223.802,193.058
3,0,176.455,433.975,1149.3,182.713,165.162,1124.69,-27.51,335.948,1214.66,-15.922,231.85,1206.79,170.727,503.833,876.991,197.441,468.455,680.042,166.681,467.01,508.101,203.897,405.684,253.185,149.019,354.634,206.33,360.523,412.6,204.29,78.5829,124.808,845.288,20.7017,158.814,660.76,-62.7313,158.563,462.968,-134.85,204.155,262.567,-215.458,238.044,235.828,-5.12483,223.544,193.11
4,0,178.004,435.004,1149.38,183.91,166.406,1124.97,-26.1825,337.288,1214.43,-14.7319,233.084,1206.43,169.601,504.35,876.349,193.507,469.313,679.189,161.859,467.693,506.994,197.213,405.323,251.719,142.19,354.299,204.816,354.037,412.597,203.389,78.1306,125.521,844.889,19.982,160.118,660.29,-66.038,159.212,463.589,-140.927,203.965,264.171,-222.172,237.648,238.279,-11.6816,223.331,193.145
5,0,179.438,436.097,1149.44,185.034,167.701,1125.31,-24.9367,338.627,1214.26,-13.6107,234.326,1206.13,168.322,504.907,875.761,189.593,470.167,678.422,157.048,468.372,506.002,190.562,405.013,250.421,135.379,354.01,203.5,347.519,412.582,202.581,78.1581,126.352,844.471,19.9327,161.349,659.778,-68.7757,159.795,464.28,-146.654,203.769,266.005,-228.511,237.249,241.138,-18.1738,223.165,193.161
6,0,180.755,437.254,1149.47,186.084,169.046,1125.69,-23.773,339.968,1214.15,-12.559,235.575,1205.88,166.892,505.504,875.227,185.7,471.017,677.739,152.247,469.048,505.122,183.942,404.754,249.289,128.587,353.766,202.378,340.972,412.555,201.863,78.6638,127.298,844.037,20.5525,162.505,659.225,-70.9441,160.313,465.04,-152.023,203.568,268.072,-234.467,236.847,244.406,-24.6051,223.044,193.158
7,0,181.957,438.474,1149.47,187.059,170.44,1126.12,-22.6919,341.31,1214.11,-11.5779,236.833,1205.68,165.312,506.141,874.743,181.824,471.864,677.137,147.456,469.72,504.353,177.355,404.544,248.317,121.815,353.565,201.443,334.4,412.516,201.231,79.645,128.352,843.59,21.8383,163.586,658.632,-72.5421,160.765,465.87,-157.025,203.36,270.373,-240.023,236.444,248.091,-30.9809,222.971,193.133
8,0,183.043,439.755,1149.44,187.96,171.881,1126.59,-21.6944,342.655,1214.13,-10.6691,238.099,1205.53,163.583,506.819,874.307,177.963,472.709,676.612,142.676,470.388,503.688,170.8,404.381,247.496,115.062,353.405,200.686,327.807,412.467,200.68,81.0968,129.505,843.135,23.7854,164.591,658.001,-73.5688,161.151,466.771,-161.645,203.145,272.911,-245.157,236.044,252.196,-37.3086,222.945,193.084
9,0,184.014,441.095,1149.39,188.783,173.368,1127.1,-20.7817,344.004,1214.2,-9.83472,239.375,1205.43,161.707,507.538,873.913,174.115,473.554,676.156,137.906,471.053,503.123,164.278,404.265,246.817,108.331,353.283,200.093,321.201,412.407,200.2,83.0122,130.746,842.679,26.3865,165.518,657.334,-74.0235,161.469,467.746,-165.864,202.922,275.69,-249.84,235.652,256.729,-43.5961,222.967,193.011
10,0,184.87,442.493,1149.3,189.529,174.896,1127.65,-19.9556,345.358,1214.32,-9.0778,240.662,1205.36,159.688,508.296,873.555,170.274,474.399,675.762,133.146,471.715,502.649,157.787,404.192,246.265,101.622,353.196,199.648,314.587,412.337,199.785,85.381,132.06,842.229,29.6314,166.364,656.636,-73.9059,161.72,468.797,-169.659,202.69,278.712,-254.036,235.273,261.695,-49.851,223.035,192.914
11,0,185.611,443.943,1149.17,190.195,176.461,1128.23,-19.2183,346.719,1214.49,-8.4019,241.961,1205.33,157.529,509.095,873.227,166.439,475.246,675.421,128.398,472.371,502.257,151.329,404.159,245.826,94.9369,353.14,199.333,307.975,412.258,199.425,88.1898,133.428,841.794,33.5061,167.128,655.911,-73.2169,161.902,469.925,-173.004,202.448,281.982,-257.704,234.916,267.098,-56.0779,223.147,192.801
12,0,186.239,445.443,1149.01,190.778,178.058,1128.83,-18.5722,348.089,1214.68,-7.81121,243.273,1205.33,155.234,509.933,872.921,162.603,476.097,675.121,123.66,473.023,501.936,144.902,404.161,245.482,88.2756,353.109,199.127,301.371,412.169,199.11,91.4211,134.831,841.385,37.9928,167.808,655.166,-71.9588,162.016,471.136,-175.869,202.195,285.499,-260.802,234.588,272.938,-62.276,223.297,192.68
13,0,186.755,446.986,1148.8,191.277,179.68,1129.46,-18.0205,349.469,1214.89,-7.31042,244.601,1205.35,152.81,510.809,872.627,158.765,476.954,674.852,118.934,473.669,501.675,138.505,404.195,245.217,81.6396,353.098,199.008,294.782,412.072,198.831,95.0534,136.247,841.013,43.0692,168.404,654.408,-70.136,162.063,472.431,-178.225,201.93,289.266,-263.288,234.298,279.206,-68.4357,223.478,192.57
14,0,187.158,448.566,1148.56,191.687,181.321,1130.1,-17.5663,350.861,1215.11,-6.90455,245.944,1205.37,150.264,511.722,872.339,154.922,477.816,674.601,114.22,474.308,501.462,132.139,404.254,245.011,75.0295,353.103,198.956,288.214,411.966,198.578,99.0605,137.653,840.687,48.7083,168.915,653.648,-67.7558,162.044,473.814,-180.044,201.652,293.277,-265.122,234.055,285.888,-74.5353,223.678,192.495
15,0,187.452,450.178,1148.27,192.005,182.972,1130.75,-17.2131,352.264,1215.33,-6.59883,247.303,1205.4,147.605,512.669,872.046,151.071,478.684,674.358,109.52,474.938,501.285,125.801,404.334,244.848,68.4461,353.117,198.95,281.671,411.853,198.344,103.412,139.029,840.419,54.8786,169.343,652.897,-64.8285,161.962,475.288,-181.299,201.36,297.525,-266.271,233.866,292.955,-80.5382,223.883,192.487
16,0,187.637,451.813,1147.94,192.229,184.625,1131.4,-16.9647,353.68,1215.53,-6.39848,248.679,1205.43,144.843,513.648,871.742,147.212,479.558,674.11,104.834,475.558,501.13,119.491,404.429,244.711,61.8899,353.136,198.972,275.157,411.732,198.122,108.072,140.352,840.217,61.5436,169.689,652.169,-61.3677,161.821,476.855,-181.969,201.055,301.998,-266.713,233.739,300.37,-86.3898,224.074,192.582
17,0,187.716,453.463,1147.56,192.354,186.269,1132.04,-16.8244,355.107,1215.71,-6.30848,250.071,1205.44,141.992,514.653,871.421,143.347,480.435,673.849,100.165,476.167,500.989,113.208,404.534,244.588,55.3614,353.155,199.006,268.674,411.606,197.906,113,141.605,840.091,68.6625,169.959,651.477,-57.3909,161.625,478.516,-182.036,200.735,306.677,-266.433,233.677,308.079,-92.0157,224.23,192.825
18,0,187.691,455.12,1147.14,192.378,187.895,1132.67,-16.7956,356.543,1215.85,-6.3334,251.478,1205.42,139.064,515.68,871.077,139.478,481.315,673.566,95.5135,476.761,500.85,106.951,404.642,244.468,48.8612,353.17,199.039,262.221,411.476,197.693,118.154,142.77,840.047,76.1904,170.156,650.84,-52.9191,161.38,480.27,-181.49,200.402,311.536,-265.431,233.681,316.015,-97.3216,224.33,193.26
19,0,187.564,456.773,1146.67,192.297,189.494,1133.27,-16.8812,357.986,1215.95,-6.47719,252.898,1205.37,136.077,516.723,870.707,135.608,482.192,673.254,90.8813,477.339,500.706,100.719,404.75,244.341,42.3897,353.178,199.062,255.798,411.342,197.48,123.483,143.833,840.091,84.0788,170.287,650.274,-47.977,161.093,482.115,-180.325,200.054,316.542,-263.718,233.748,324.097,-102.193,224.348,193.934
20,0,187.337,458.415,1146.16,192.109,191.054,1133.85,-17.0834,359.432,1216,-6.74296,254.328,1205.28,133.047,517.773,870.31,131.741,483.064,672.91,86.2698,477.898,500.551,94.5126,404.853,244.202,35.9474,353.175,199.071,249.403,411.207,197.264,128.936,144.784,840.228,92.2762,170.36,649.799,-42.5922,160.772,484.047,-178.542,199.694,321.653,-261.319,233.872,332.228,-106.5,224.265,194.888
21,0,187.013,460.036,1145.62,191.81,192.565,1134.4,-17.404,360.876,1215.98,-7.13284,255.764,1205.16,129.993,518.822,869.885,127.883,483.925,672.531,81.6801,478.437,500.379,88.3302,404.946,244.049,29.5351,353.162,199.062,243.033,411.071,197.045,134.46,145.615,840.461,100.729,170.383,649.434,-36.7949,160.424,486.057,-176.145,199.321,326.821,-258.268,234.042,340.303,-110.098,224.059,196.155
22,0,186.595,461.625,1145.05,191.4,194.019,1134.91,-17.8434,362.313,1215.91,-7.64789,257.203,1204.98,126.932,519.861,869.435,124.04,484.77,672.117,77.113,478.952,500.189,82.1724,405.028,243.881,23.1533,353.136,199.038,236.687,410.937,196.822,139.996,146.32,840.793,109.382,170.365,649.199,-30.6173,160.057,488.136,-173.146,198.936,331.99,-254.606,234.245,348.203,-112.836,223.717,197.758
23,0,186.085,463.175,1144.45,190.876,195.406,1135.39,-18.4014,363.737,1215.78,-8.28791,258.638,1204.76,123.884,520.878,868.963,120.217,485.591,671.672,72.5688,479.442,499.98,76.0393,405.095,243.702,16.8026,353.098,199.003,230.36,410.805,196.596,145.49,146.897,841.225,118.18,170.315,649.115,-24.0927,159.679,490.269,-169.555,198.539,337.094,-250.382,234.464,355.806,-114.562,223.229,199.703
24,0,185.485,464.675,1143.84,190.238,196.717,1135.83,-19.0762,365.14,1215.58,-9.05148,260.065,1204.5,120.865,521.865,868.474,116.419,486.384,671.198,68.047,479.905,499.755,69.9311,405.147,243.514,10.4834,353.049,198.964,224.051,410.677,196.368,150.884,147.345,841.757,127.067,170.242,649.198,-17.2544,159.299,492.439,-165.385,198.132,342.066,-245.645,234.682,362.983,-115.131,222.594,201.982
25,0,184.799,466.118,1143.23,189.486,197.945,1136.23,-19.8652,366.518,1215.34,-9.93587,261.478,1204.2,117.891,522.808,867.974,112.651,487.141,670.701,63.5467,480.338,499.517,63.8482,405.182,243.326,4.1961,352.99,198.929,217.756,410.552,196.137,156.123,147.667,842.389,135.988,170.155,649.468,-10.1355,158.923,494.627,-160.651,197.715,346.829,-240.442,234.88,369.609,-114.411,221.819,204.566
26,0,184.028,467.495,1142.62,188.622,199.085,1136.61,-20.7642,367.862,1215.04,-10.9371,262.87,1203.87,114.976,523.699,867.472,108.914,487.856,670.191,59.066,480.741,499.272,57.7905,405.201,243.142,-2.05939,352.923,198.907,211.474,410.431,195.906,161.158,147.866,843.12,144.89,170.061,649.939,-2.76747,158.557,496.808,-155.363,197.289,351.307,-234.815,235.038,375.559,-112.292,220.918,207.413
27,0,183.174,468.8,1142.02,187.648,200.129,1136.96,-21.7679,369.166,1214.71,-12.05,264.235,1203.51,112.129,524.528,866.973,105.212,488.523,669.674,54.6023,481.112,499.026,51.758,405.205,242.972,-8.28352,352.85,198.91,205.204,410.314,195.676,165.942,147.947,843.95,153.721,169.967,650.623,4.81999,158.207,498.958,-149.531,196.855,355.42,-228.798,235.14,380.718,-108.688,219.912,210.461
28,0,182.24,470.025,1141.46,186.566,201.075,1137.29,-22.8695,370.425,1214.35,-13.2683,265.567,1203.13,109.358,525.284,866.485,101.544,489.137,669.162,50.1523,481.45,498.788,45.75,405.194,242.823,-14.4773,352.776,198.948,198.943,410.2,195.446,170.434,147.917,844.875,162.433,169.878,651.531,12.5998,157.876,501.047,-143.162,196.415,359.091,-222.414,235.173,384.981,-103.544,218.828,213.638
29,0,181.226,471.166,1140.93,185.38,201.92,1137.61,-24.0613,371.634,1213.97,-14.5846,266.859,1202.75,106.666,525.96,866.017,97.908,489.694,668.662,45.7124,481.754,498.565,39.7652,405.173,242.704,-20.6425,352.703,199.03,192.69,410.09,195.22,174.602,147.785,845.895,170.979,169.8,652.668,20.5478,157.569,503.046,-136.256,195.971,362.245,-215.674,235.127,388.257,-96.8373,217.694,216.862
30,0,180.134,472.216,1140.46,184.097,202.662,1137.92,-25.3347,372.787,1213.59,-15.9907,268.107,1202.39,104.052,526.551,865.574,94.3024,490.189,668.186,41.2785,482.025,498.368,33.8016,405.144,242.623,-26.7816,352.636,199.166,186.444,409.982,194.996,178.42,147.561,847.007,179.315,169.735,654.036,28.6428,157.286,504.925,-128.814,195.524,364.814,-208.577,234.996,390.471,-88.5771,216.54,220.049
31,0,178.966,473.173,1140.05,182.72,203.301,1138.24,-26.6798,373.883,1213.21,-17.4778,269.303,1202.04,101.513,527.049,865.165,90.7229,490.621,667.742,36.8463,482.263,498.204,27.8568,405.11,242.587,-32.8978,352.58,199.365,180.204,409.877,194.778,181.871,147.254,848.207,187.398,169.684,655.633,36.8666,157.029,506.656,-120.829,195.077,366.736,-201.107,234.779,391.566,-78.8019,215.394,223.116
32,0,177.724,474.033,1139.71,181.259,203.837,1138.58,-28.0865,374.917,1212.86,-19.0363,270.445,1201.73,99.0426,527.453,864.793,87.1645,490.987,667.34,32.4118,482.467,498.083,21.9274,405.076,242.603,-38.9955,352.541,199.635,173.97,409.774,194.565,184.947,146.878,849.493,195.191,169.648,657.451,45.2039,156.798,508.208,-112.292,194.633,367.961,-193.234,234.483,391.506,-67.5764,214.276,225.986
33,0,176.408,474.794,1139.45,179.721,204.272,1138.94,-29.544,375.89,1212.54,-20.656,271.527,1201.48,96.6311,527.76,864.465,83.6219,491.286,666.988,27.9713,482.639,498.013,16.0099,405.046,242.678,-45.0795,352.523,199.981,167.738,409.674,194.359,187.648,146.443,850.862,202.657,169.626,659.479,53.6418,156.591,509.557,-103.191,194.196,368.451,-184.922,234.115,390.273,-54.9869,213.203,228.592
34,0,175.021,475.456,1139.28,178.115,204.611,1139.33,-31.0413,376.798,1212.27,-22.3267,272.547,1201.28,94.2679,527.969,864.183,80.0898,491.52,666.693,23.5218,482.779,498.001,10.1002,405.026,242.818,-51.1554,352.533,200.409,161.509,409.577,194.161,189.982,145.962,852.309,209.762,169.616,661.7,62.1693,156.409,510.681,-93.5125,193.768,368.181,-176.12,233.69,387.872,-41.1355,212.182,230.882
35,0,173.564,476.017,1139.2,176.452,204.855,1139.76,-32.5672,377.643,1212.06,-24.0378,273.499,1201.15,91.9411,528.083,863.951,76.5628,491.689,666.461,19.0613,482.889,498.053,4.19418,405.018,243.027,-57.2293,352.575,200.922,155.28,409.484,193.972,191.963,145.446,853.832,216.473,169.615,664.093,70.777,156.248,511.56,-83.2399,193.354,367.142,-166.775,233.223,384.326,-26.1342,211.214,232.821
36,0,172.042,476.479,1139.23,174.743,205.009,1140.23,-34.1109,378.422,1211.91,-25.7783,274.383,1201.11,89.6386,528.104,863.77,73.0364,491.795,666.295,14.5885,482.969,498.175,-1.71198,405.027,243.308,-63.3075,352.655,201.524,149.049,409.395,193.792,193.612,144.907,855.425,222.763,169.621,666.635,79.4561,156.109,512.183,-72.3573,192.958,365.341,-156.826,232.733,379.681,-10.0999,210.292,234.387
37,0,170.458,476.843,1139.35,173,205.08,1140.76,-35.6618,379.137,1211.83,-27.5374,275.194,1201.16,87.3491,528.035,863.641,69.5071,491.839,666.199,10.1037,483.021,498.371,-7.62164,405.056,243.665,-69.396,352.775,202.217,142.814,409.311,193.622,194.955,144.352,857.086,228.604,169.63,669.296,88.1982,155.988,512.542,-60.8492,192.584,362.801,-146.214,232.237,374,6.85136,209.405,235.581
38,0,168.817,477.113,1139.56,171.235,205.071,1141.34,-37.2098,379.785,1211.82,-29.3041,275.931,1201.29,85.0624,527.88,863.564,65.9726,491.825,666.173,5.60816,483.044,498.641,-13.5374,405.106,244.098,-75.5002,352.938,203,136.573,409.232,193.462,196.019,143.788,858.808,233.972,169.637,672.045,96.994,155.886,512.636,-48.7025,192.236,359.564,-134.883,231.755,367.365,24.6075,208.539,236.415
39,0,167.124,477.29,1139.87,169.462,204.989,1141.98,-38.7453,380.367,1211.9,-31.0673,276.59,1201.53,82.7701,527.644,863.537,62.4321,491.756,666.218,1.10436,483.041,498.988,-19.4608,405.177,244.609,-81.6246,353.143,203.876,130.324,409.159,193.311,196.837,143.219,860.586,238.849,169.639,674.85,105.833,155.8,512.472,-35.9076,191.917,355.685,-122.779,231.301,359.873,43.0638,207.683,236.918
40,0,165.388,477.379,1140.27,167.696,204.84,1142.68,-40.2593,380.879,1212.05,-32.8161,277.168,1201.86,80.4662,527.333,863.558,58.8864,491.634,666.331,-3.40413,483.011,499.41,-25.3923,405.268,245.196,-87.7725,353.388,204.842,124.065,409.091,193.169,197.437,142.646,862.413,243.216,169.634,677.675,114.704,155.731,512.06,-22.4605,191.631,351.236,-109.862,230.89,351.64,62.1243,206.827,237.131
41,0,163.616,477.385,1140.76,165.952,204.629,1143.43,-41.7438,381.319,1212.28,-34.5392,277.664,1202.27,78.1474,526.953,863.625,55.3376,491.463,666.51,-7.91282,482.955,499.905,-31.3311,405.378,245.857,-93.9453,353.669,205.897,117.795,409.028,193.034,197.85,142.069,864.278,247.061,169.616,680.485,123.592,155.678,511.418,-8.36439,191.383,346.301,-96.1003,230.532,342.792,81.7024,205.969,237.104
42,0,161.82,477.313,1141.31,164.244,204.364,1144.23,-43.1911,381.683,1212.59,-36.2254,278.072,1202.78,75.8126,526.509,863.734,51.7894,491.245,666.75,-12.4165,482.873,500.47,-37.2754,405.501,246.589,-100.143,353.98,207.038,111.511,408.969,192.904,198.102,141.483,866.17,250.379,169.585,683.245,132.479,155.641,510.569,6.36808,191.175,340.977,-81.4815,230.234,333.465,101.719,205.114,236.895
43,0,160.01,477.168,1141.93,162.588,204.048,1145.08,-44.5942,381.965,1212.95,-37.8634,278.389,1203.36,73.4639,526.007,863.88,48.2467,490.985,667.046,-16.9097,482.765,501.1,-43.2223,405.633,247.388,-106.363,354.312,208.263,105.212,408.912,192.778,198.218,140.882,868.076,253.165,169.538,685.92,141.346,155.621,509.541,21.7129,191.012,335.368,-66.0105,230.001,323.805,122.103,204.277,236.565
44,0,158.2,476.956,1142.6,161.001,203.689,1145.97,-45.9468,382.16,1213.38,-39.4418,278.611,1204.01,71.1055,525.452,864.059,44.7155,490.683,667.391,-21.3866,482.631,501.789,-49.1682,405.769,248.248,-112.602,354.656,209.567,98.8965,408.857,192.654,198.218,140.258,869.979,255.426,169.473,688.479,150.168,155.621,508.364,37.6327,190.899,329.585,-49.7137,229.835,313.964,142.785,203.48,236.176
45,0,156.403,476.682,1143.3,159.497,203.291,1146.88,-47.2428,382.26,1213.84,-40.949,278.733,1204.71,68.7438,524.85,864.267,41.2025,490.344,667.779,-25.8415,482.472,502.534,-55.109,405.901,249.166,-118.854,355.002,210.945,92.5637,408.801,192.529,198.115,139.601,871.859,257.171,169.392,690.891,158.92,155.64,507.072,54.0748,190.839,323.739,-32.6418,229.739,304.094,163.694,202.753,235.788
46,0,154.636,476.355,1144.02,158.093,202.858,1147.81,-48.4765,382.258,1214.34,-42.3734,278.749,1205.45,66.387,524.206,864.498,37.7148,489.97,668.204,-30.2691,482.288,503.325,-61.0406,406.025,250.134,-125.114,355.34,212.394,86.2118,408.743,192.403,197.921,138.903,873.695,258.418,169.294,693.131,167.569,155.681,505.699,70.9693,190.837,317.943,-14.8704,229.712,294.346,184.759,202.13,235.456
47,0,152.915,475.978,1144.75,156.803,202.396,1148.74,-49.6425,382.145,1214.87,-43.7033,278.654,1206.22,64.0448,523.524,864.746,34.2598,489.563,668.657,-34.6646,482.079,504.159,-66.959,406.135,251.148,-131.375,355.661,213.907,79.8389,408.68,192.273,197.642,138.153,875.462,259.192,169.182,695.176,176.082,155.747,504.278,88.2286,190.901,312.303,3.49846,229.758,284.865,205.896,201.647,235.226
48,0,151.256,475.559,1145.46,155.644,201.908,1149.66,-50.7351,381.913,1215.39,-44.927,278.443,1207,61.7276,522.808,865.007,30.8449,489.125,669.133,-39.0236,481.847,505.028,-72.8608,406.226,252.201,-137.63,355.957,215.481,73.4433,408.613,192.139,197.283,137.346,877.135,259.523,169.057,697.008,184.421,155.84,502.84,105.746,191.035,306.917,22.3365,229.878,275.789,227.013,201.338,235.134
49,0,149.679,475.102,1146.15,154.628,201.397,1150.56,-51.7489,381.553,1215.91,-46.0328,278.11,1207.76,59.4466,522.064,865.275,27.4774,488.659,669.623,-43.3426,481.592,505.927,-78.7437,406.296,253.29,-143.873,356.223,217.109,67.0225,408.538,192.001,196.846,136.476,878.686,259.449,168.924,698.613,192.545,155.963,501.415,123.397,191.247,301.871,41.4903,230.077,267.239,248.002,201.235,235.203
50,0,148.199,474.613,1146.79,153.771,200.866,1151.43,-52.6778,381.06,1216.41,-47.0092,277.651,1208.5,57.2131,521.294,865.544,24.1642,488.167,670.123,-47.6185,481.318,506.851,-84.6061,406.343,254.409,-150.099,356.456,218.788,60.5742,408.456,191.859,196.332,135.542,880.09,259.015,168.786,699.982,200.413,156.119,500.027,141.038,191.543,297.237,60.7833,230.362,259.323,268.74,201.36,235.439
51,0,146.835,474.098,1147.38,153.084,200.318,1152.25,-53.5159,380.424,1216.87,-47.8452,277.061,1209.2,55.0381,520.503,865.81,20.9118,487.65,670.625,-51.8487,481.025,507.794,-90.4477,406.368,255.555,-156.305,356.656,220.514,54.0957,408.365,191.713,195.745,134.549,881.32,258.268,168.65,701.11,207.979,156.311,498.695,158.512,191.93,293.068,80.019,230.741,252.126,289.086,201.727,235.831
52,0,145.603,473.559,1147.9,152.578,199.753,1153.01,-54.2567,379.643,1217.28,-48.5301,276.337,1209.84,52.9324,519.695,866.069,17.7268,487.11,671.126,-56.0308,480.716,508.753,-96.2692,406.374,256.727,-162.487,356.826,222.283,47.5847,408.265,191.564,195.09,133.504,882.356,257.263,168.52,701.997,215.198,156.543,497.433,175.648,192.414,289.399,98.9847,231.223,245.71,308.886,202.34,236.353
53,0,144.52,473,1148.34,152.265,199.173,1153.7,-54.8932,378.712,1217.63,-49.0538,275.477,1210.41,50.906,518.873,866.315,14.6153,486.55,671.621,-60.1625,480.394,509.726,-102.073,406.364,257.922,-168.647,356.972,224.094,41.039,408.156,191.416,194.38,132.422,883.178,256.054,168.402,702.646,222.024,156.818,496.248,192.265,193.001,286.243,117.458,231.818,240.113,327.97,203.193,236.96
54,0,143.6,472.425,1148.68,152.153,198.579,1154.3,-55.4184,377.63,1217.91,-49.4073,274.481,1210.88,48.9685,518.04,866.545,11.5835,485.969,672.105,-64.2411,480.061,510.709,-107.86,406.345,259.14,-174.784,357.102,225.945,34.4567,408.038,191.269,193.631,131.323,883.774,254.7,168.302,703.064,228.413,157.138,495.141,208.179,193.696,283.593,135.21,232.535,235.346,346.163,204.271,237.597
55,0,142.856,471.834,1148.92,152.248,197.97,1154.81,-55.8248,376.398,1218.1,-49.5824,273.349,1211.26,47.1288,517.2,866.757,8.63806,485.37,672.576,-68.2633,479.722,511.702,-113.636,406.323,260.382,-180.902,357.225,227.836,27.8369,407.912,191.126,192.869,130.232,884.136,253.257,168.225,703.261,234.323,157.507,494.107,223.207,194.5,281.423,152.017,233.379,231.395,363.283,205.55,238.195
56,0,142.301,471.228,1149.05,152.555,197.345,1155.23,-56.1049,375.021,1218.21,-49.5724,272.086,1211.54,45.3953,516.355,866.947,5.78603,484.753,673.031,-72.2251,479.377,512.704,-119.402,406.307,261.65,-187.002,357.354,229.768,21.1794,407.779,190.991,192.125,129.179,884.264,251.782,168.177,703.249,239.714,157.926,493.136,237.173,195.415,279.688,167.663,234.356,228.219,379.154,206.999,238.679
57,0,141.944,470.608,1149.07,153.079,196.705,1155.54,-56.2511,373.503,1218.22,-49.3719,270.694,1211.69,43.776,515.509,867.112,3.03543,484.12,673.467,-76.1211,479.029,513.714,-125.162,406.303,262.947,-193.089,357.498,231.742,14.4852,407.639,190.866,191.438,128.194,884.164,250.326,168.161,703.042,244.554,158.396,492.213,249.913,196.439,278.329,181.949,235.466,225.758,393.607,208.586,238.974
58,0,141.791,469.973,1148.97,153.82,196.048,1155.74,-56.256,371.855,1218.13,-48.9771,269.182,1211.73,42.2786,514.663,867.252,0.395521,483.471,673.882,-79.9445,478.68,514.734,-130.918,406.32,264.276,-199.166,357.67,233.763,7.75644,407.496,190.754,190.854,127.31,883.851,248.938,168.179,702.655,248.812,158.917,491.32,261.283,197.57,277.275,194.701,236.705,223.93,406.494,210.273,239.009
59,0,141.849,469.321,1148.76,154.778,195.37,1155.83,-56.1128,370.087,1217.94,-48.3864,267.558,1211.65,40.9112,513.819,867.364,-2.12296,482.808,674.274,-83.6865,478.332,515.765,-136.671,406.364,265.642,-205.236,357.879,235.834,0.996498,407.35,190.659,190.421,126.558,883.342,247.658,168.233,702.104,252.468,159.488,490.435,271.161,198.799,276.449,205.774,238.065,222.641,417.688,212.025,238.723
60,0,142.119,468.649,1148.44,155.948,194.672,1155.82,-55.8152,368.213,1217.66,-47.5997,265.833,1211.45,39.6819,512.979,867.449,-4.50741,482.132,674.642,-87.3367,477.986,516.806,-142.42,406.44,267.05,-211.301,358.132,237.961,-5.78985,407.204,190.585,190.19,125.964,882.662,246.521,168.322,701.404,255.506,160.106,489.538,279.458,200.118,275.769,215.061,239.531,221.787,427.094,213.806,238.069
61,0,142.6,467.955,1148,157.327,193.95,1155.71,-55.3581,366.25,1217.28,-46.6193,264.017,1211.12,38.5994,512.144,867.504,-6.74317,481.445,674.983,-90.8823,477.642,517.861,-148.164,406.554,268.506,-217.361,358.436,240.151,-12.5966,407.061,190.535,190.209,125.551,881.84,245.552,168.442,700.573,257.921,160.765,488.607,286.115,201.514,275.156,222.494,241.087,221.261,434.654,215.581,237.022
62,0,143.291,467.234,1147.47,158.905,193.201,1155.5,-54.7374,364.214,1216.81,-45.4496,262.126,1210.69,37.6735,511.315,867.531,-8.81332,480.749,675.294,-94.3083,477.3,518.93,-153.897,406.708,270.014,-223.414,358.793,242.41,-19.4164,406.923,190.512,190.519,125.33,880.906,244.767,168.589,699.624,259.715,161.46,487.623,291.111,202.971,274.539,228.049,242.71,220.957,440.349,217.319,235.577
63,0,144.185,466.483,1146.85,160.673,192.424,1155.2,-53.9507,362.125,1216.26,-44.0974,260.172,1210.16,36.9144,510.491,867.529,-10.6985,480.048,675.573,-97.5973,476.962,520.013,-159.61,406.902,271.581,-229.457,359.204,244.749,-26.241,406.792,190.517,191.152,125.306,879.889,244.174,168.756,698.574,260.898,162.18,486.569,294.458,204.471,273.855,231.746,244.373,220.775,444.202,218.991,233.75
64,0,145.273,465.696,1146.14,162.619,191.615,1154.82,-52.9974,360.003,1215.64,-42.5716,258.171,1209.53,36.3339,509.672,867.498,-12.377,479.345,675.816,-100.729,476.626,521.113,-165.291,407.135,273.212,-235.479,359.666,247.175,-33.061,406.67,190.554,192.125,125.468,878.818,243.77,168.933,697.438,261.488,162.915,485.434,296.208,205.993,273.054,233.647,246.048,220.629,446.279,220.572,231.583
65,0,146.546,464.869,1145.36,164.728,190.772,1154.38,-51.8791,357.866,1214.96,-40.8834,256.138,1208.83,35.9445,508.858,867.438,-13.8245,478.647,676.018,-103.682,476.294,522.227,-170.925,407.405,274.912,-241.471,360.176,249.7,-39.8668,406.558,190.621,193.442,125.799,877.72,243.544,169.11,696.228,261.511,163.654,484.21,296.444,207.513,272.101,233.854,247.705,220.444,446.682,222.04,229.133
66,0,147.99,463.997,1144.54,166.984,189.892,1153.88,-50.5996,355.735,1214.23,-39.0462,254.088,1208.06,35.76,508.049,867.348,-15.0145,477.959,676.176,-106.43,475.968,523.357,-176.491,407.708,276.687,-247.416,360.727,252.334,-46.648,406.457,190.719,195.083,126.267,876.616,243.476,169.276,694.959,261,164.382,482.895,295.278,209.006,270.978,232.503,249.313,220.164,445.55,223.376,226.474
67,0,149.589,463.075,1143.67,169.368,188.975,1153.33,-49.1651,353.628,1213.46,-37.0754,252.036,1207.24,35.7947,507.243,867.229,-15.9186,477.289,676.284,-108.946,475.648,524.499,-181.964,408.039,278.541,-253.293,361.31,255.089,-53.3947,406.367,190.842,197.015,126.833,875.525,243.54,169.416,693.644,259.993,165.084,481.493,292.849,210.448,269.681,229.757,250.841,219.752,443.048,224.565,223.689
68,0,151.325,462.1,1142.77,171.86,188.017,1152.76,-47.5846,351.562,1212.67,-34.9883,249.996,1206.4,36.0638,506.44,867.079,-16.5065,476.647,676.337,-111.202,475.338,525.654,-187.316,408.392,280.477,-259.075,361.915,257.98,-60.097,406.286,190.988,199.182,127.447,874.459,243.702,169.519,692.296,258.53,165.745,480.012,289.313,211.814,268.223,225.802,252.261,219.187,439.361,225.596,220.865
69,0,153.179,461.067,1141.87,174.44,187.017,1152.17,-45.8697,349.553,1211.86,-32.8039,247.979,1205.55,36.5827,505.641,866.899,-16.7467,476.041,676.328,-113.165,475.042,526.816,-192.511,408.762,282.501,-264.73,362.534,261.019,-66.7462,406.211,191.15,201.514,128.056,873.427,243.924,169.57,690.927,256.657,166.351,478.466,284.837,213.08,266.628,220.833,253.549,218.467,434.685,226.463,218.087
70,0,155.129,459.975,1140.97,177.084,185.976,1151.57,-44.0348,347.614,1211.07,-30.5426,245.997,1204.7,37.3667,504.847,866.686,-16.6071,475.483,676.252,-114.802,474.766,527.983,-197.512,409.142,284.616,-270.219,363.154,264.223,-73.3343,406.139,191.319,203.928,128.606,872.432,244.164,169.559,689.55,254.418,166.886,476.87,279.594,214.225,264.93,215.049,254.685,217.604,429.217,227.164,215.43
71,0,157.154,458.82,1140.1,179.768,184.892,1150.99,-42.0967,345.755,1210.29,-28.2261,244.058,1203.88,38.4304,504.059,866.442,-16.0553,474.984,676.103,-116.079,474.517,529.151,-202.276,409.525,286.827,-275.497,363.765,267.609,-79.8551,406.065,191.487,206.336,129.045,871.477,244.379,169.473,688.176,251.858,167.339,475.245,273.753,215.232,263.169,208.644,255.653,216.621,423.149,227.701,212.959
72,0,159.229,457.602,1139.26,182.469,183.766,1150.44,-40.0749,343.983,1209.54,-25.8767,242.17,1203.1,39.7872,503.28,866.164,-15.0601,474.556,675.876,-116.96,474.301,530.316,-206.759,409.908,289.139,-280.511,364.355,271.193,-86.3031,405.982,191.645,208.645,129.323,870.56,244.524,169.303,686.816,249.019,167.696,473.612,267.475,216.088,261.391,201.8,256.445,215.55,416.657,228.082,210.723
73,0,161.331,456.321,1138.46,185.163,182.599,1149.91,-37.9909,342.303,1208.83,-23.5175,240.339,1202.38,41.4488,502.512,865.853,-13.5913,474.211,675.566,-117.411,474.128,531.474,-210.914,410.284,291.56,-285.206,364.914,274.995,-92.6742,405.882,191.787,210.768,129.404,869.682,244.558,169.044,685.482,245.942,167.95,471.994,260.909,216.784,259.638,194.682,257.057,214.431,409.899,228.317,208.757
74,0,163.435,454.979,1137.73,187.824,181.392,1149.43,-35.8682,340.715,1208.18,-21.1715,238.566,1201.73,43.4245,501.761,865.51,-11.6216,473.958,675.17,-117.396,474.006,532.619,-214.693,410.65,294.098,-289.518,365.429,279.036,-98.9646,405.759,191.907,212.628,129.258,868.841,244.438,168.689,684.183,242.662,168.095,470.411,254.183,217.317,257.953,187.43,257.493,213.3,403.006,228.422,207.075
75,0,165.517,453.579,1137.07,190.43,180.148,1149,-33.7318,339.218,1207.58,-18.8617,236.853,1201.16,45.7207,501.03,865.135,-9.12656,473.808,674.688,-116.883,473.945,533.75,-218.049,411.002,296.763,-293.381,365.889,283.334,-105.17,405.605,192.004,214.16,128.871,868.039,244.126,168.238,682.927,239.209,168.127,468.884,247.406,217.692,256.369,180.162,257.763,212.195,396.086,228.412,205.678
76,0,167.553,452.123,1136.48,192.958,178.87,1148.62,-31.6077,337.807,1207.05,-16.6104,235.2,1200.68,48.3404,500.326,864.73,-6.08615,473.768,674.119,-115.841,473.954,534.864,-220.938,411.337,299.568,-296.728,366.283,287.911,-111.284,405.414,192.083,215.316,128.241,867.276,243.59,167.69,681.724,235.61,168.046,467.43,240.664,217.914,254.915,172.966,257.88,211.15,389.219,228.309,204.554
77,0,169.519,450.619,1135.98,195.385,177.561,1148.3,-29.5223,336.474,1206.58,-14.4392,233.604,1200.31,51.2828,499.655,864.3,-2.48519,473.845,673.468,-114.243,474.04,535.96,-223.319,411.654,302.528,-299.492,366.597,292.783,-117.298,405.181,192.155,216.069,127.38,866.557,242.801,167.049,680.578,231.884,167.855,466.063,234.022,217.997,253.611,165.908,257.864,210.189,382.46,228.13,203.68
78,0,171.395,449.071,1135.56,197.692,176.226,1148.04,-27.5021,335.21,1206.19,-12.3682,232.061,1200.03,54.5426,499.021,863.85,1.68585,474.041,672.741,-112.064,474.211,537.038,-225.154,411.95,305.658,-301.61,366.819,297.966,-123.195,404.904,192.239,216.408,126.309,865.886,241.735,166.321,679.494,228.047,167.56,464.792,227.52,217.957,252.466,159.027,257.735,209.333,375.841,227.897,203.023
79,0,173.159,447.489,1135.23,199.861,174.868,1147.84,-25.5728,334.004,1205.87,-10.4161,230.567,1199.86,58.1101,498.432,863.384,6.43021,474.357,671.947,-109.288,474.471,538.102,-226.414,412.224,308.974,-303.025,366.938,303.469,-128.951,404.585,192.363,216.338,125.062,865.268,240.375,165.514,678.476,224.11,167.169,463.626,221.184,217.812,251.483,152.344,257.519,208.592,369.376,227.628,202.548
80,0,174.793,445.879,1135,201.874,173.493,1147.69,-23.759,332.843,1205.61,-8.59966,229.117,1199.79,61.9711,497.891,862.913,11.7444,474.79,671.097,-105.901,474.822,539.155,-227.074,412.474,312.491,-303.69,366.941,309.297,-134.534,404.233,192.562,215.879,123.675,864.705,238.71,164.636,677.523,220.078,166.693,462.566,215.019,217.585,250.656,145.859,257.239,207.968,363.063,227.34,202.219
81,0,176.281,444.251,1134.85,203.718,172.107,1147.6,-22.0834,331.714,1205.42,-6.93364,227.704,1199.82,66.1065,497.403,862.444,17.618,475.334,670.208,-101.898,475.265,540.204,-227.116,412.7,316.222,-303.567,366.82,315.443,-139.895,403.859,192.882,215.059,122.191,864.2,236.733,163.698,676.637,215.955,166.144,461.611,209.017,217.296,249.971,139.56,256.919,207.458,356.888,227.048,202
82,0,177.609,442.615,1134.79,205.382,170.714,1147.55,-20.5662,330.605,1205.3,-5.43049,226.324,1199.94,70.4926,496.972,861.988,24.0335,475.979,669.298,-97.2787,475.796,541.255,-226.531,412.901,320.176,-302.637,366.566,321.893,-144.974,403.481,193.37,213.912,120.651,863.753,234.445,162.712,675.813,211.741,165.535,460.757,203.162,216.966,249.412,133.426,256.582,207.051,350.832,226.765,201.858
83,0,178.766,440.981,1134.81,206.855,169.321,1147.54,-19.2248,329.505,1205.22,-4.10023,224.97,1200.14,75.1016,496.598,861.557,30.9664,476.715,668.387,-92.0524,476.409,542.318,-225.314,413.075,324.354,-300.895,366.175,328.617,-149.694,403.121,194.081,212.472,119.093,863.36,231.85,161.689,675.05,207.435,164.878,459.997,197.428,216.614,248.958,127.428,256.246,206.732,344.87,226.499,201.763
84,0,179.742,439.359,1134.91,208.132,167.933,1147.57,-18.0734,328.401,1205.19,-2.9504,223.638,1200.41,79.9018,496.281,861.163,38.3856,477.525,667.499,-86.2343,477.096,543.402,-223.467,413.224,328.752,-298.353,365.648,335.574,-153.963,402.806,195.067,210.774,117.552,863.016,228.958,160.642,674.343,203.035,164.188,459.323,191.788,216.256,248.588,121.536,255.929,206.483,338.977,226.257,201.693
85,0,180.533,437.757,1135.09,209.209,166.556,1147.62,-17.1225,327.286,1205.21,-1.98596,222.325,1200.74,84.8583,496.021,860.819,46.2536,478.394,666.657,-79.8471,477.844,544.518,-220.997,413.346,333.354,-295.039,364.989,342.706,-157.673,402.567,196.379,208.848,116.056,862.712,225.785,159.58,673.685,198.537,163.477,458.723,186.211,215.907,248.281,115.718,255.642,206.287,333.128,226.041,201.63
86,0,181.134,436.186,1135.32,210.083,165.196,1147.68,-16.3788,326.152,1205.25,-1.20937,221.028,1201.12,89.9335,495.814,860.537,54.5277,479.302,665.889,-72.9204,478.639,545.675,-217.917,413.443,338.136,-290.997,364.208,349.943,-160.705,402.434,198.057,206.72,114.626,862.437,222.347,158.516,673.071,193.941,162.758,458.188,180.669,215.578,248.017,109.944,255.393,206.125,327.301,225.853,201.561
87,0,181.546,434.654,1135.62,210.755,163.859,1147.75,-15.845,324.996,1205.32,-0.620617,219.745,1201.54,95.0881,495.655,860.329,63.1599,480.231,665.22,-65.4904,479.466,546.882,-214.238,413.515,343.06,-286.286,363.322,357.199,-162.931,402.436,200.129,204.412,113.277,862.179,218.665,157.458,672.496,189.246,162.04,457.705,175.135,215.274,247.778,104.191,255.187,205.98,321.478,225.689,201.477
88,0,181.771,433.169,1135.97,211.229,162.549,1147.83,-15.5201,323.814,1205.4,-0.217365,218.476,1201.98,100.282,495.539,860.207,72.0986,481.159,664.676,-57.5987,480.305,548.145,-209.979,413.566,348.077,-280.971,362.353,364.374,-164.22,402.598,202.61,201.944,112.018,861.926,214.764,156.416,671.952,184.452,161.334,457.265,169.587,215,247.552,98.4352,255.025,205.837,315.645,225.547,201.374
89,0,181.814,431.737,1136.37,211.509,161.272,1147.89,-15.3994,322.609,1205.5,0.00488819,217.223,1202.43,105.475,495.459,860.18,81.2889,482.068,664.281,-49.292,481.14,549.469,-205.155,413.599,353.125,-275.126,361.328,371.36,-164.441,402.938,205.491,199.334,110.853,861.667,210.667,155.398,671.435,179.562,160.647,456.857,164.007,214.757,247.328,92.6613,254.904,205.687,309.791,225.423,201.252
90,0,181.683,430.364,1136.8,211.603,160.033,1147.94,-15.4747,321.383,1205.61,0.0526086,215.988,1202.88,110.628,495.407,860.259,90.6737,482.937,664.058,-40.6208,481.95,550.856,-199.783,413.619,358.136,-268.825,360.278,378.04,-163.471,403.466,208.746,196.602,109.783,861.391,206.4,154.411,670.938,174.579,159.985,456.474,158.382,214.543,247.099,86.8573,254.82,205.519,303.91,225.309,201.112
91,0,181.386,429.054,1137.28,211.517,158.836,1147.97,-15.7348,320.143,1205.72,-0.0660156,214.773,1203.33,115.704,495.376,860.449,100.195,483.749,664.027,-31.6389,482.717,552.304,-193.881,413.632,363.029,-262.14,359.24,384.293,-161.202,404.182,212.324,193.768,108.805,861.092,201.988,153.46,670.458,169.509,159.353,456.109,152.704,214.356,246.862,81.0156,254.768,205.331,297.997,225.202,200.955
92,0,180.935,427.809,1137.78,211.263,157.684,1147.97,-16.166,318.897,1205.83,-0.341334,213.585,1203.76,120.669,495.358,860.757,109.793,484.488,664.205,-22.4015,483.425,553.808,-187.466,413.645,367.719,-255.134,358.25,389.999,-157.548,405.073,216.158,190.857,107.919,860.763,197.456,152.55,669.99,164.358,158.755,455.755,146.968,214.191,246.616,75.1325,254.74,205.119,292.052,225.097,200.786
93,0,180.343,426.633,1138.31,210.85,156.581,1147.95,-16.7524,317.654,1205.94,-0.762511,212.427,1204.17,125.492,495.344,861.187,119.409,485.14,664.604,-12.9651,484.058,555.358,-180.553,413.665,372.119,-247.861,357.344,395.042,-152.445,406.117,220.16,187.893,107.12,860.401,192.829,151.686,669.532,159.133,158.193,455.411,141.173,214.044,246.363,69.2071,254.729,204.886,286.076,224.988,200.608
94,0,179.623,425.525,1138.86,210.29,155.53,1147.89,-17.4769,316.426,1206.06,-1.31782,211.305,1204.56,130.147,495.328,861.74,128.987,485.693,665.235,-3.38587,484.602,556.942,-173.157,413.699,376.138,-240.363,356.556,399.314,-145.861,407.283,224.234,184.903,106.405,860.007,188.126,150.871,669.08,153.843,157.669,455.072,135.321,213.91,246.104,63.2409,254.729,204.634,280.069,224.874,200.424
95,0,178.79,424.484,1139.44,209.594,154.534,1147.8,-18.3213,315.224,1206.18,-1.9949,210.225,1204.92,134.612,495.304,862.417,138.471,486.138,666.101,6.28086,485.047,558.543,-165.294,413.755,379.693,-232.664,355.915,402.723,-137.797,408.533,228.272,181.915,105.773,859.578,183.368,150.108,668.635,148.496,157.183,454.738,129.418,213.785,245.845,57.2367,254.733,204.369,274.034,224.751,200.238
96,0,177.858,423.51,1140.04,208.773,153.593,1147.68,-19.2674,314.061,1206.3,-2.78109,209.193,1205.24,138.871,495.265,863.216,147.807,486.468,667.202,15.9818,485.385,560.141,-156.979,413.839,382.705,-224.776,355.444,405.188,-128.284,409.823,232.168,178.949,105.222,859.118,178.572,149.398,668.194,143.099,156.735,454.409,123.467,213.666,245.588,51.1984,254.736,204.095,267.975,224.62,200.05
97,0,176.842,422.599,1140.65,207.841,152.71,1147.52,-20.2969,312.947,1206.44,-3.66364,208.214,1205.54,142.911,495.208,864.134,156.944,486.681,668.533,25.6664,485.61,561.714,-148.229,413.955,385.103,-216.694,355.157,406.65,-117.387,411.114,235.822,176.026,104.749,858.628,173.75,148.742,667.759,137.662,156.325,454.086,117.476,213.55,245.338,45.1299,254.735,203.821,261.893,224.481,199.862
98,0,175.758,421.75,1141.28,206.807,151.885,1147.32,-21.3926,311.895,1206.58,-4.62999,207.292,1205.81,146.727,495.13,865.167,165.834,486.773,670.083,35.2874,485.721,563.238,-139.059,414.107,386.83,-208.402,355.059,407.069,-105.198,412.367,239.142,173.155,104.353,858.111,168.915,148.143,667.329,132.19,155.952,453.771,111.45,213.436,245.098,39.035,254.726,203.55,255.791,224.334,199.676
99,0,174.619,420.959,1141.93,205.684,151.12,1147.09,-22.5383,310.913,1206.75,-5.66798,206.434,1206.06,150.315,495.028,866.308,174.434,486.746,671.839,44.8014,485.719,564.686,-129.487,414.295,387.843,-199.871,355.144,406.424,-91.8332,413.552,242.055,170.34,104.028,857.57,164.072,147.601,666.906,126.689,155.615,453.465,105.394,213.322,244.871,32.9174,254.707,203.291,249.669,224.181,199.491
100,0,173.439,420.222,1142.59,204.481,150.414,1146.83,-23.7195,310.01,1206.93,-6.76605,205.641,1206.27,153.679,494.902,867.549,182.703,486.603,673.781,54.1695,485.607,566.032,-119.532,414.517,388.112,-191.067,355.397,404.717,-77.4272,414.65,244.503,167.573,103.77,857.009,159.227,147.115,666.491,121.164,155.312,453.172,99.3147,213.209,244.66,26.7798,254.678,203.048,243.53,224.025,199.309
101,0,172.231,419.536,1143.27,203.208,149.767,1146.53,-24.9234,309.193,1207.13,-7.91337,204.916,1206.47,156.824,494.752,868.882,190.603,486.347,675.887,63.3578,485.391,567.251,-109.211,414.769,387.626,-181.951,355.796,401.97,-62.1249,415.649,246.452,164.84,103.573,856.431,154.381,146.684,666.084,115.619,155.044,452.893,93.2146,213.097,244.465,20.6246,254.636,202.825,237.374,223.868,199.127
102,0,171.006,418.898,1143.97,201.874,149.178,1146.2,-26.1391,308.466,1207.36,-9.10004,204.262,1206.65,159.757,494.58,870.296,198.102,485.984,678.13,72.337,485.077,568.318,-98.5442,415.046,386.388,-172.483,356.31,398.221,-46.076,416.552,247.889,162.118,103.429,855.841,149.534,146.309,665.689,110.054,154.808,452.631,87.0967,212.986,244.289,14.4533,254.584,202.625,231.2,223.712,198.948
103,0,169.775,418.304,1144.67,200.486,148.647,1145.84,-27.3578,307.831,1207.62,-10.3171,203.68,1206.82,162.489,494.39,871.781,205.172,485.52,680.48,81.0833,484.674,569.21,-87.5498,415.34,384.416,-162.624,356.907,393.526,-29.4278,417.369,248.819,159.377,103.328,855.245,144.684,145.988,665.306,104.472,154.604,452.387,80.963,212.879,244.132,8.267,254.521,202.453,225.009,223.559,198.77
104,0,168.547,417.753,1145.4,199.052,148.173,1145.45,-28.5725,307.29,1207.9,-11.5567,203.169,1206.98,165.028,494.184,873.323,211.786,484.962,682.906,89.5778,484.191,569.907,-76.2453,415.645,381.743,-152.342,357.551,387.953,-12.319,418.117,249.268,156.587,103.263,854.651,139.826,145.718,664.938,98.8707,154.43,452.165,74.814,212.776,243.992,2.06639,254.447,202.308,218.801,223.411,198.594
105,0,167.33,417.242,1146.13,197.578,147.754,1145.03,-29.7784,306.841,1208.21,-12.8118,202.73,1207.13,167.385,493.967,874.91,217.926,484.317,685.374,97.807,483.638,570.392,-64.6465,415.95,378.415,-141.611,358.21,381.58,5.12483,418.815,249.273,153.715,103.225,854.064,134.955,145.499,664.585,93.2506,154.285,451.966,68.6499,212.679,243.871,-4.14817,254.364,202.191,212.574,223.27,198.418
106,0,166.13,416.769,1146.87,196.069,147.388,1144.57,-30.9718,306.483,1208.55,-14.0769,202.361,1207.27,169.569,493.744,876.525,223.574,483.593,687.851,105.762,483.025,570.651,-52.7673,416.25,374.487,-130.411,358.854,374.497,22.7953,419.485,248.886,150.732,103.206,853.494,130.067,145.327,664.248,87.6098,154.168,451.791,62.4701,212.589,243.768,-10.3765,254.273,202.104,206.328,223.136,198.244
107,0,164.954,416.335,1147.62,194.53,147.073,1144.1,-32.151,306.213,1208.91,-15.3469,202.062,1207.41,171.587,493.52,878.154,228.719,482.797,690.301,113.438,482.362,570.677,-40.619,416.536,370.024,-118.734,359.46,366.796,40.6032,420.14,248.163,147.613,103.201,852.947,125.155,145.201,663.93,81.9466,154.078,451.641,56.2737,212.508,243.681,-16.6184,254.176,202.045,200.064,223.009,198.069
108,0,163.806,415.937,1148.36,192.965,146.808,1143.59,-33.3148,306.025,1209.3,-16.6181,201.831,1207.56,173.442,493.302,879.78,233.354,481.937,692.692,120.834,481.657,570.463,-28.2107,416.804,365.098,-106.578,360.015,358.573,58.479,420.791,247.167,144.343,103.209,852.432,120.216,145.116,663.631,76.2594,154.015,451.517,50.0597,212.435,243.611,-22.8736,254.074,202.016,193.782,222.89,197.895
109,0,162.69,415.576,1149.11,191.378,146.59,1143.06,-34.4634,305.916,1209.71,-17.8874,201.667,1207.7,175.138,493.094,881.386,237.474,481.018,694.991,127.953,480.919,570.009,-15.5492,417.049,359.784,-93.9501,360.511,349.928,76.3721,421.435,245.96,140.91,103.229,851.954,115.247,145.071,663.351,70.5472,153.977,451.42,43.8271,212.373,243.556,-29.1421,253.97,202.016,187.481,222.777,197.72
110,0,161.609,415.253,1149.84,189.772,146.417,1142.5,-35.597,305.882,1210.13,-19.1524,201.569,1207.84,176.672,492.902,882.954,241.08,480.048,697.167,134.801,480.156,569.319,-2.64021,417.268,354.161,-80.8658,360.951,340.958,94.2488,422.061,244.607,137.316,103.264,851.518,110.245,145.062,663.092,64.8097,153.963,451.351,37.5751,212.323,243.516,-35.4234,253.866,202.045,181.162,222.671,197.544
111,0,160.567,414.967,1150.56,188.149,146.287,1141.91,-36.7162,305.917,1210.56,-20.4114,201.536,1207.99,178.041,492.732,884.466,244.179,479.031,699.193,141.384,479.375,568.401,10.5108,417.46,348.311,-67.3464,361.345,331.76,112.089,422.648,243.167,133.569,103.32,851.125,105.211,145.087,662.852,59.0477,153.973,451.308,31.3036,212.284,243.49,-41.717,253.765,202.104,174.826,222.569,197.366
112,0,159.565,414.721,1151.26,186.514,146.196,1141.3,-37.8214,306.019,1211,-21.6629,201.568,1208.14,179.238,492.587,885.906,246.778,477.976,701.045,147.71,478.581,567.265,23.897,417.622,342.312,-53.4197,361.707,322.431,129.882,423.162,241.697,129.685,103.401,850.778,100.149,145.143,662.633,53.263,154.005,451.293,25.0123,212.259,243.479,-48.0225,253.67,202.196,168.473,222.471,197.186
113,0,158.605,414.514,1151.93,184.868,146.143,1140.66,-38.9124,306.185,1211.45,-22.9057,201.664,1208.28,180.255,492.473,887.254,248.89,476.886,702.703,153.787,477.781,565.927,37.5082,417.754,336.243,-39.1195,362.055,313.062,147.621,423.567,240.249,125.688,103.517,850.472,95.0625,145.226,662.433,47.4592,154.058,451.306,18.702,212.247,243.484,-54.3392,253.584,202.321,162.104,222.374,197.004
114,0,157.69,414.348,1152.57,183.215,146.124,1140,-39.9887,306.411,1211.89,-24.1388,201.825,1208.43,181.082,492.392,888.495,250.532,475.767,704.149,159.62,476.978,564.404,51.3286,417.855,330.181,-24.4858,362.408,303.745,165.303,423.819,238.872,121.606,103.672,850.205,89.9599,145.335,662.253,41.6411,154.133,451.345,12.3737,212.249,243.504,-60.6665,253.51,202.482,155.72,222.277,196.82
115,0,156.822,414.223,1153.17,181.56,146.137,1139.32,-41.0486,306.698,1212.33,-25.3609,202.052,1208.57,181.708,492.346,889.614,251.722,474.625,705.372,165.216,476.176,562.715,65.335,417.922,324.197,-9.56485,362.781,294.567,182.919,423.877,237.606,117.469,103.872,849.969,84.8509,145.467,662.09,35.815,154.226,451.411,6.0289,212.265,243.541,-67.0038,253.45,202.683,149.319,222.179,196.634
116,0,156.002,414.14,1153.72,179.905,146.179,1138.63,-42.0897,307.045,1212.75,-26.5705,202.347,1208.7,182.125,492.336,890.597,252.483,473.466,706.363,170.575,475.379,560.881,79.4938,417.953,318.36,5.58927,363.186,285.61,200.45,423.7,236.489,113.31,104.122,849.76,79.7477,145.62,661.945,29.9887,154.338,451.503,-0.330377,212.295,243.597,-73.3505,253.406,202.927,142.902,222.077,196.447
117,0,155.236,414.098,1154.21,178.257,146.249,1137.91,-43.1085,307.453,1213.16,-27.7655,202.71,1208.83,182.324,492.362,891.431,252.84,472.295,707.12,175.695,474.587,558.925,93.7598,417.942,312.731,20.9137,363.63,276.955,217.869,423.257,235.548,109.158,104.423,849.569,74.6644,145.792,661.816,24.1714,154.467,451.621,-6.70169,212.338,243.675,-79.7058,253.38,203.216,136.468,221.971,196.26
118,0,154.524,414.098,1154.65,176.62,146.343,1137.18,-44.1005,307.922,1213.55,-28.9435,203.144,1208.94,182.301,492.421,892.106,252.821,471.118,707.643,180.571,473.803,556.868,108.074,417.883,307.366,36.3352,364.109,268.675,235.133,422.525,234.806,105.045,104.774,849.39,69.6167,145.982,661.701,18.3731,154.61,451.765,-13.0822,212.393,243.776,-86.0693,253.372,203.555,130.017,221.858,196.075
119,0,153.871,414.14,1155.02,175.002,146.46,1136.44,-45.0601,308.455,1213.91,-30.1012,203.649,1209.03,182.053,492.512,892.616,252.453,469.942,707.937,185.192,473.025,554.734,122.363,417.768,302.312,51.769,364.614,260.839,252.182,421.493,234.274,100.997,105.173,849.216,64.6216,146.187,661.598,12.6048,154.766,451.933,-19.4689,212.456,243.905,-92.4404,253.38,203.945,123.546,221.738,195.892
120,0,153.282,414.221,1155.31,173.408,146.597,1135.69,-45.981,309.053,1214.24,-31.2348,204.229,1209.1,181.584,492.631,892.954,251.767,468.774,708.008,189.544,472.254,552.542,136.537,417.588,297.608,67.1172,365.126,253.507,268.941,420.164,233.952,97.0374,105.616,849.041,59.697,146.407,661.506,6.8781,154.934,452.125,-25.8585,212.527,244.063,-98.8185,253.403,204.392,117.055,221.609,195.714
121,0,152.76,414.342,1155.53,171.848,146.752,1134.94,-46.8561,309.719,1214.53,-32.3395,204.882,1209.15,180.901,492.774,893.118,250.794,467.621,707.868,193.608,471.488,550.314,150.492,417.331,293.283,82.2687,365.618,246.73,285.315,418.553,233.832,93.1881,106.097,848.862,54.8614,146.641,661.423,1.20489,155.11,452.339,-32.2474,212.6,244.256,-105.203,253.436,204.896,110.542,221.472,195.54
122,0,152.311,414.501,1155.67,170.329,146.926,1134.19,-47.6776,310.453,1214.78,-33.4097,205.611,1209.17,180.02,492.935,893.109,249.565,466.489,707.529,197.36,470.725,548.065,164.113,416.988,289.354,97.0994,366.06,240.55,301.197,416.69,233.889,89.4672,106.61,848.674,50.1331,146.888,661.346,-4.40296,155.293,452.576,-38.6323,212.672,244.485,-111.595,253.475,205.461,104.007,221.326,195.371
123,0,151.94,414.695,1155.74,168.862,147.115,1133.44,-48.4376,311.258,1214.98,-34.4391,206.414,1209.15,178.961,493.108,892.93,248.112,465.387,707.007,200.775,469.962,545.813,177.27,416.548,285.828,111.473,366.415,234.995,316.462,414.616,234.089,85.8903,107.149,848.476,45.5304,147.147,661.273,-9.93379,155.48,452.834,-45.0097,212.738,244.756,-117.993,253.513,206.089,97.4461,221.17,195.206
124,0,151.654,414.924,1155.72,167.455,147.321,1132.7,-49.1278,312.132,1215.13,-35.4207,207.292,1209.1,177.748,493.287,892.586,246.466,464.321,706.316,203.826,469.197,543.57,189.827,416,282.7,125.244,366.648,230.081,330.978,412.381,234.383,82.4712,107.708,848.265,41.0712,147.419,661.201,-15.3764,155.669,453.112,-51.3765,212.793,245.071,-124.398,253.543,206.782,90.8597,221.006,195.046
125,0,151.456,415.186,1155.62,166.119,147.542,1131.97,-49.74,313.076,1215.22,-36.3467,208.241,1209,176.414,493.466,892.087,244.658,463.298,705.475,206.485,468.427,541.347,201.643,415.337,279.954,138.259,366.722,225.81,344.606,410.042,234.711,79.2221,108.279,848.041,36.7724,147.704,661.129,-20.7201,155.858,453.409,-57.7298,212.832,245.434,-130.81,253.557,207.543,84.2462,220.834,194.889
126,0,151.353,415.478,1155.44,164.865,147.779,1131.26,-50.2665,314.087,1215.26,-37.2091,209.259,1208.86,174.995,493.639,891.442,242.717,462.324,704.5,208.726,467.651,539.152,212.579,414.554,277.563,150.364,366.607,222.167,357.204,407.66,235.008,76.1538,108.859,847.805,32.6502,148.003,661.053,-25.9549,156.044,453.724,-64.0669,212.848,245.849,-137.23,253.548,208.375,77.6044,220.654,194.733
127,0,151.351,415.801,1155.19,163.703,148.033,1130.57,-50.6999,315.164,1215.22,-37.9993,210.342,1208.67,173.531,493.799,890.664,240.671,461.406,703.407,210.523,466.867,536.99,222.501,413.647,275.49,161.409,366.277,219.125,368.638,405.296,235.201,73.2763,109.441,847.554,28.7202,148.316,660.971,-31.0714,156.227,454.056,-70.3859,212.837,246.319,-143.661,253.509,209.281,70.9336,220.467,194.577
128,0,151.453,416.152,1154.86,162.644,148.307,1129.91,-51.0335,316.301,1215.13,-38.7085,211.485,1208.44,172.066,493.941,889.767,238.546,460.548,702.214,211.857,466.074,534.865,231.285,412.619,273.693,171.253,365.716,216.641,378.781,403.008,235.22,70.5985,110.022,847.291,24.9969,148.646,660.881,-36.0608,156.404,454.404,-76.6851,212.794,246.847,-150.102,253.431,210.266,64.2331,220.274,194.42
129,0,151.665,416.53,1154.47,161.698,148.601,1129.28,-51.2616,317.495,1214.96,-39.3282,212.684,1208.15,170.642,494.061,888.769,236.368,459.756,700.937,212.713,465.275,532.78,238.825,411.473,272.122,179.768,364.917,214.661,387.526,400.849,234.997,68.1289,110.598,847.014,21.4945,148.993,660.779,-40.9147,156.577,454.768,-82.9632,212.715,247.438,-156.557,253.309,211.334,57.5026,220.076,194.26
130,0,151.988,416.937,1154.03,160.873,148.92,1128.69,-51.3794,318.739,1214.73,-39.85,213.93,1207.81,169.302,494.153,887.686,234.16,459.031,699.591,213.085,464.471,530.734,245.036,410.219,270.725,186.851,363.885,213.122,394.788,398.863,234.477,65.8748,111.168,846.724,18.2269,149.359,660.663,-45.6246,156.743,455.148,-89.2192,212.597,248.093,-163.027,253.137,212.492,50.7427,219.871,194.097
131,0,152.427,417.371,1153.53,160.179,149.266,1128.14,-51.3833,320.027,1214.43,-40.266,215.217,1207.42,168.087,494.216,886.535,231.942,458.377,698.191,212.971,463.667,528.728,249.857,408.869,269.449,192.426,362.636,211.95,400.51,397.084,233.619,63.8433,111.731,846.421,15.2078,149.747,660.531,-50.1821,156.904,455.543,-95.4517,212.439,248.817,-169.513,252.913,213.747,43.9545,219.661,193.931
132,0,152.98,417.834,1152.98,159.623,149.644,1127.64,-51.2711,321.351,1214.06,-40.569,216.537,1206.98,167.034,494.247,885.335,229.733,457.795,696.751,212.382,462.868,526.763,253.259,407.442,268.245,196.447,361.197,211.071,404.666,395.534,232.4,62.0406,112.285,846.105,12.4515,150.158,660.379,-54.5782,157.061,455.954,-101.659,212.238,249.615,-176.016,252.633,215.109,37.1403,219.446,193.765
133,0,153.649,418.326,1152.41,159.211,150.058,1127.18,-51.0417,322.705,1213.63,-40.7529,217.884,1206.49,166.171,494.246,884.104,227.55,457.285,695.284,211.335,462.084,524.837,255.24,405.957,267.068,198.904,359.605,210.408,407.267,394.223,230.821,60.4731,112.834,845.775,9.97273,150.595,660.205,-58.8028,157.214,456.382,-107.839,211.997,250.491,-182.535,252.296,216.585,30.3038,219.224,193.6
134,0,154.432,418.851,1151.81,158.948,150.513,1126.78,-50.6957,324.08,1213.14,-40.8128,219.247,1205.97,165.522,494.213,882.86,225.408,456.847,693.803,209.857,461.321,522.953,255.831,404.437,265.88,199.824,357.904,209.888,408.356,393.152,228.903,59.147,113.38,845.431,7.78745,151.058,660.006,-62.8448,157.365,456.828,-113.988,211.716,251.451,-189.067,251.902,218.189,23.4501,218.996,193.44
135,0,155.325,419.41,1151.19,158.836,151.014,1126.44,-50.235,325.468,1212.6,-40.7451,220.621,1205.4,165.101,494.15,881.619,223.318,456.48,692.321,207.98,460.59,521.114,255.094,402.908,264.654,199.269,356.143,209.445,408.013,392.306,226.687,58.069,113.926,845.073,5.91275,151.549,659.78,-66.6915,157.515,457.295,-120.1,211.397,252.501,-195.606,251.454,219.933,16.5863,218.761,193.289
136,0,156.323,420.006,1150.57,158.876,151.567,1126.16,-49.6629,326.864,1212.02,-40.548,221.997,1204.81,164.913,494.063,880.397,221.292,456.184,690.85,205.747,459.903,519.323,253.119,401.395,263.371,197.336,354.374,209.021,406.347,391.667,224.234,57.2469,114.479,844.702,4.36717,152.068,659.524,-70.3281,157.665,457.786,-126.165,211.045,253.649,-202.143,250.954,221.83,9.72089,218.519,193.15
137,0,157.421,420.643,1149.95,159.067,152.177,1125.95,-48.9843,328.259,1211.41,-40.2213,223.369,1204.2,164.952,493.956,879.208,219.338,455.955,689.4,203.204,459.27,517.585,250.018,399.924,262.023,194.149,352.645,208.571,403.494,391.205,221.616,56.6893,115.045,844.318,3.17073,152.612,659.236,-73.738,157.816,458.302,-132.173,210.663,254.902,-208.664,250.406,223.897,2.86432,218.272,193.027
138,0,158.61,421.323,1149.35,159.405,152.849,1125.8,-48.2054,329.649,1210.78,-39.767,224.731,1203.57,165.203,493.837,878.064,217.46,455.793,687.983,200.401,458.702,515.906,245.923,398.521,260.613,189.857,351.005,208.065,399.605,390.889,218.915,56.4069,115.631,843.922,2.34483,153.181,658.913,-76.9025,157.968,458.85,-138.107,210.257,256.271,-215.151,249.814,226.152,-3.97186,218.021,192.922
139,0,159.881,422.05,1148.77,159.886,153.588,1125.72,-47.3338,331.028,1210.13,-39.1888,226.077,1202.93,165.644,493.716,876.977,215.663,455.695,686.609,197.389,458.211,514.296,240.981,397.207,259.152,184.624,349.492,207.484,394.847,390.686,216.213,56.4114,116.247,843.514,1.91207,153.769,658.553,-79.8007,158.12,459.434,-143.947,209.83,257.766,-221.578,249.186,228.612,-10.7753,217.769,192.834
140,0,161.224,422.828,1148.22,160.502,154.398,1125.71,-46.3785,332.393,1209.49,-38.4926,227.405,1202.31,166.241,493.603,875.954,213.947,455.662,685.286,194.218,457.805,512.761,235.345,396.001,257.659,178.622,348.139,206.824,389.386,390.561,213.588,56.7164,116.901,843.096,1.89581,154.37,658.154,-82.4098,158.271,460.059,-149.67,209.389,259.399,-227.914,248.528,231.3,-17.5335,217.521,192.764
141,0,162.627,423.66,1147.71,161.243,155.282,1125.77,-45.3495,333.741,1208.85,-37.6866,228.711,1201.69,166.957,493.51,875.002,212.311,455.691,684.023,190.939,457.492,511.309,229.166,394.92,256.159,172.024,346.966,206.094,383.386,390.485,211.111,57.3366,117.6,842.67,2.31972,154.978,657.714,-84.7053,158.417,460.731,-155.246,208.939,261.183,-234.124,247.848,234.237,-24.2349,217.282,192.706
142,0,164.076,424.549,1147.23,162.097,156.242,1125.9,-44.2579,335.071,1208.24,-36.7806,229.994,1201.09,167.747,493.45,874.125,210.75,455.783,682.826,187.595,457.281,509.949,222.594,393.975,254.68,164.995,345.986,205.312,376.997,390.432,208.836,58.2875,118.35,842.238,3.20709,155.582,657.234,-86.6616,158.554,461.459,-160.642,208.483,263.133,-240.162,247.156,237.447,-30.8693,217.058,192.656
143,0,165.558,425.497,1146.8,163.052,157.28,1126.1,-43.116,336.383,1207.67,-35.7866,231.254,1200.53,168.564,493.436,873.325,209.256,455.937,681.7,184.224,457.174,508.686,215.763,393.172,253.25,157.688,345.201,204.502,370.353,390.383,206.807,59.5844,119.157,841.801,4.58006,156.172,656.711,-88.2523,158.677,462.249,-165.821,208.026,265.262,-245.979,246.46,240.955,-37.429,216.859,192.604
144,0,167.06,426.507,1146.41,164.092,158.396,1126.36,-41.9364,337.678,1207.13,-34.7184,232.493,1200,169.36,493.482,872.603,207.818,456.156,680.648,180.856,457.175,507.526,208.796,392.513,251.895,150.236,344.605,203.694,363.568,390.322,205.046,61.2416,120.022,841.364,6.45885,156.735,656.148,-89.4509,158.779,463.11,-170.743,207.57,267.586,-251.522,245.773,244.786,-43.909,216.693,192.544
145,0,168.567,427.579,1146.07,165.201,159.588,1126.69,-40.7327,338.958,1206.65,-33.5912,233.714,1199.51,170.086,493.601,871.955,206.422,456.44,679.672,177.515,457.283,506.471,201.795,391.997,250.64,142.751,344.182,202.915,356.732,390.242,203.562,63.2716,120.943,840.931,8.8608,157.258,655.546,-90.2314,158.852,464.051,-175.365,207.119,270.123,-256.731,245.104,248.966,-50.3075,216.569,192.466
146,0,170.064,428.714,1145.77,166.362,160.853,1127.08,-39.5187,340.226,1206.23,-32.4217,234.921,1199.07,170.697,493.804,871.378,205.052,456.791,678.769,174.214,457.498,505.521,194.841,391.617,249.504,135.321,343.914,202.193,349.913,390.14,202.349,65.684,121.913,840.505,11.7996,157.727,654.908,-90.5692,158.888,465.08,-179.645,206.672,272.888,-261.545,244.466,253.519,-56.6255,216.495,192.364
147,0,171.536,429.912,1145.51,167.557,162.187,1127.52,-38.3085,341.487,1205.86,-31.2275,236.117,1198.68,171.149,494.102,870.866,203.685,457.212,677.938,170.958,457.816,504.675,187.995,391.364,248.498,128.008,343.778,201.551,343.157,390.019,201.388,68.484,122.924,840.092,15.2842,158.127,654.238,-90.4419,158.878,466.206,-183.537,206.23,275.896,-265.903,243.87,258.468,-62.8655,216.479,192.236
148,0,172.971,431.169,1145.29,168.768,163.584,1128.01,-37.1161,342.744,1205.56,-30.027,237.31,1198.34,171.405,494.503,870.412,202.3,457.704,677.173,167.743,458.23,503.926,181.299,391.227,247.629,120.854,343.749,201.004,336.49,389.882,200.651,71.6722,123.962,839.7,19.3186,158.444,653.542,-89.8299,158.813,467.44,-187.001,205.792,279.163,-269.745,243.328,263.831,-69.0307,216.524,192.084
149,0,174.354,432.484,1145.11,169.974,165.036,1128.54,-35.9553,344.004,1205.32,-28.8388,238.505,1198.04,171.433,495.013,870.008,200.87,458.269,676.467,164.559,458.734,503.269,174.772,391.192,246.896,113.88,343.802,200.561,329.924,389.736,200.102,75.243,125.008,839.335,23.9006,158.664,652.829,-88.7169,158.685,468.788,-189.996,205.355,282.702,-273.013,242.85,269.623,-75.1222,216.633,191.92
150,0,175.673,433.853,1144.95,171.159,166.534,1129.11,-34.8396,345.27,1205.14,-27.6817,239.709,1197.79,171.206,495.636,869.646,199.369,458.908,675.813,161.387,459.318,502.693,168.419,391.243,246.293,107.09,343.914,200.225,323.459,389.59,199.705,79.1844,126.043,839.007,29.0216,158.778,652.108,-87.0909,158.487,470.26,-192.487,204.917,286.523,-275.658,242.444,275.85,-81.1366,216.801,191.762
151,0,176.918,435.271,1144.82,172.304,168.068,1129.72,-33.7818,346.548,1205.01,-26.5741,240.928,1197.59,170.705,496.371,869.315,197.768,459.622,675.201,158.207,459.974,502.189,162.233,391.366,245.81,100.475,344.064,199.989,317.084,389.452,199.42,83.4776,127.044,838.725,34.6665,158.775,651.391,-84.9446,158.212,471.861,-194.444,204.475,290.632,-277.635,242.118,282.512,-87.0634,217.022,191.638
152,0,178.076,436.731,1144.7,173.392,169.629,1130.35,-32.7938,347.842,1204.94,-25.5334,242.169,1197.42,169.916,497.216,869.007,196.038,460.41,674.622,154.992,460.69,501.744,156.194,391.545,245.431,94.0165,344.233,199.844,310.788,389.328,199.212,88.0965,127.987,838.499,40.8135,158.649,650.691,-82.2756,157.855,473.596,-195.841,204.025,295.033,-278.911,241.875,289.596,-92.8814,217.282,191.586
153,0,179.14,438.227,1144.59,174.407,171.203,1130.99,-31.8866,349.155,1204.9,-24.5762,243.437,1197.28,168.832,498.164,868.713,194.154,461.27,674.066,151.716,461.455,501.345,150.276,391.766,245.139,87.6911,344.408,199.774,304.553,389.224,199.048,93.0078,128.85,838.341,47.4339,158.396,650.024,-79.0866,157.414,475.469,-196.661,203.563,299.72,-279.463,241.719,297.079,-98.556,217.561,191.652
154,0,180.102,439.751,1144.48,175.333,172.779,1131.66,-31.07,350.491,1204.89,-23.7174,244.736,1197.16,167.454,499.206,868.425,192.088,462.197,673.526,148.349,462.257,500.982,144.45,392.014,244.917,81.4725,344.577,199.762,298.366,389.146,198.901,98.1715,129.611,838.262,54.4931,158.016,649.406,-75.3858,156.889,477.48,-196.891,203.087,304.683,-279.28,241.648,304.924,-104.037,217.835,191.888
155,0,180.955,441.296,1144.37,176.159,174.344,1132.32,-30.3525,351.851,1204.91,-22.9705,246.07,1197.06,165.787,500.332,868.136,189.819,463.186,672.992,144.867,463.084,500.643,138.685,392.276,244.745,75.3343,344.731,199.79,292.212,389.096,198.749,103.541,130.25,838.274,61.9509,157.512,648.856,-71.186,156.28,479.627,-196.526,202.593,309.902,-278.365,241.656,313.081,-109.257,218.074,192.349
156,0,181.693,442.851,1144.25,176.871,175.887,1132.99,-29.7412,353.235,1204.95,-22.3466,247.44,1196.97,163.841,501.528,867.841,187.328,464.23,672.459,141.245,463.924,500.319,132.955,392.54,244.608,69.2529,344.865,199.841,286.081,389.074,198.579,109.065,130.753,838.387,69.7622,156.892,648.392,-66.5052,155.594,481.905,-195.563,202.081,315.35,-276.731,241.737,321.484,-114.131,218.246,193.089
157,0,182.314,444.408,1144.11,177.461,177.396,1133.66,-29.2419,354.641,1204.99,-21.8549,248.847,1196.88,161.634,502.776,867.536,184.601,465.318,671.921,137.463,464.765,500,127.233,392.798,244.49,63.208,344.974,199.898,279.967,389.08,198.38,114.687,131.109,838.611,77.8778,156.166,648.034,-61.3654,154.835,484.304,-194.008,201.548,320.987,-274.402,241.878,330.052,-118.558,218.316,194.157
158,0,182.815,445.957,1143.96,177.92,178.859,1134.33,-28.8587,356.066,1205.04,-21.5022,250.289,1196.78,159.186,504.06,867.217,181.628,466.439,671.375,133.506,465.594,499.682,121.5,393.039,244.381,57.1835,345.058,199.951,273.865,389.112,198.148,120.348,131.312,838.952,86.2458,155.347,647.803,-55.7921,154.014,486.813,-191.868,200.995,326.766,-271.413,242.066,338.693,-122.423,218.249,195.593
159,0,183.194,447.488,1143.79,178.242,180.266,1134.99,-28.5941,357.507,1205.08,-21.2931,251.763,1196.69,156.523,505.362,866.885,178.407,467.58,670.821,129.364,466.402,499.361,115.74,393.256,244.272,51.1678,345.116,199.988,267.773,389.164,197.885,125.987,131.363,839.417,94.8127,154.452,647.717,-49.8141,153.14,489.415,-189.154,200.421,332.629,-267.806,242.285,347.301,-125.599,218.016,197.419
160,0,183.45,448.994,1143.61,178.424,181.609,1135.64,-28.4492,358.958,1205.11,-21.2297,253.263,1196.59,153.671,506.661,866.54,174.938,468.728,670.259,125.032,467.176,499.035,109.945,393.444,244.157,45.1533,345.147,200.005,261.691,389.233,197.593,131.543,131.268,840.009,103.524,153.498,647.795,-43.462,152.224,492.09,-185.875,199.829,338.508,-263.626,242.516,355.76,-127.955,217.588,199.644
161,0,183.583,450.464,1143.41,178.462,182.88,1136.29,-28.4238,360.411,1205.14,-21.3116,254.782,1196.48,150.664,507.938,866.185,171.231,469.866,669.693,120.511,467.909,498.706,104.109,393.598,244.033,39.1362,345.153,200.001,255.621,389.312,197.279,136.958,131.036,840.727,112.325,152.506,648.055,-36.7679,151.281,494.814,-182.045,199.218,344.326,-258.923,242.74,363.946,-129.359,216.949,202.252
162,0,183.596,451.891,1143.19,178.357,184.073,1136.93,-28.5161,361.859,1205.15,-21.5366,256.312,1196.36,147.533,509.175,865.822,167.298,470.979,669.125,115.806,468.592,498.375,98.2339,393.714,243.902,33.1155,345.134,199.976,249.564,389.395,196.952,142.176,130.685,841.568,121.165,151.495,648.511,-29.7642,150.322,497.562,-177.673,198.591,350.002,-253.746,242.935,371.733,-129.684,216.089,205.209
163,0,183.488,453.267,1142.97,178.109,185.183,1137.57,-28.723,363.292,1205.16,-21.9003,257.844,1196.25,144.313,510.353,865.457,163.155,472.052,668.563,110.931,469.217,498.047,92.3217,393.792,243.765,27.0922,345.094,199.936,243.519,389.474,196.619,147.148,130.232,842.529,129.991,150.488,649.176,-22.4833,149.362,500.302,-172.769,197.949,355.448,-248.14,243.083,378.993,-128.816,215.011,208.458
164,0,183.264,454.584,1142.74,177.721,186.207,1138.21,-29.0406,364.702,1205.16,-22.3966,259.367,1196.14,141.037,511.457,865.094,158.826,473.071,668.013,105.898,469.779,497.728,86.3785,393.831,243.627,21.0689,345.033,199.886,237.486,389.542,196.288,151.832,129.701,843.6,138.756,149.504,650.06,-14.9567,148.412,503.004,-167.34,197.292,360.575,-242.145,243.163,385.6,-126.657,213.73,211.926
165,0,182.923,455.837,1142.51,177.197,187.144,1138.85,-29.4637,366.079,1205.17,-23.0179,260.869,1196.04,137.738,512.471,864.739,154.333,474.021,667.482,100.727,470.275,497.424,80.4114,393.834,243.495,15.0486,344.957,199.836,231.464,389.595,195.967,156.194,129.116,844.774,147.416,148.562,651.168,-7.21431,147.484,505.635,-161.392,196.622,365.294,-235.795,243.157,391.436,-123.128,212.271,215.526
166,0,182.471,457.021,1142.29,176.543,187.994,1139.49,-29.9864,367.415,1205.17,-23.7553,262.34,1195.96,134.447,513.384,864.398,149.705,474.892,666.978,95.4396,470.701,497.144,74.4279,393.802,243.374,9.03461,344.868,199.794,225.448,389.627,195.662,160.211,128.5,846.04,155.93,147.682,652.505,0.715786,146.59,508.161,-154.927,195.938,369.518,-229.112,243.05,396.392,-118.176,210.67,219.161
167,0,181.908,458.13,1142.08,175.765,188.758,1140.15,-30.6023,368.699,1205.19,-24.5993,263.766,1195.91,131.19,514.186,864.077,144.968,475.673,666.508,90.0573,471.058,496.894,68.4348,393.74,243.273,3.0295,344.772,199.77,219.435,389.634,195.378,163.869,127.877,847.388,164.261,146.878,654.069,8.80772,145.738,510.548,-147.946,195.24,373.168,-222.113,242.828,400.372,-111.772,208.97,222.733
168,0,181.237,459.161,1141.89,174.87,189.438,1140.82,-31.3043,369.925,1205.23,-25.5396,265.139,1195.89,127.99,514.871,863.779,140.151,476.357,666.08,84.6033,471.346,496.681,62.438,393.654,243.199,-2.96482,344.674,199.775,213.42,389.616,195.117,167.165,127.27,848.808,172.374,146.165,655.854,17.038,144.938,512.764,-140.45,194.53,376.174,-214.8,242.483,403.297,-103.914,207.218,226.148
169,0,180.463,460.111,1141.74,173.866,190.038,1141.51,-32.0853,371.084,1205.29,-26.5655,266.446,1195.92,124.866,515.433,863.511,135.28,476.939,665.698,79.1,471.568,496.514,56.4418,393.551,243.159,-8.94757,344.58,199.818,207.396,389.571,194.88,170.108,126.698,850.292,180.24,145.554,657.851,25.3856,144.194,514.778,-132.435,193.805,378.474,-207.169,242.008,405.104,-94.6239,205.463,229.32
170,0,179.587,460.979,1141.61,172.763,190.561,1142.22,-32.9378,372.171,1205.39,-27.6667,267.679,1196.01,121.832,515.873,863.274,130.381,477.417,665.37,73.5684,471.729,496.397,50.449,393.437,243.161,-14.9192,344.497,199.909,201.358,389.502,194.668,172.715,126.176,851.832,187.832,145.053,660.046,33.832,143.514,516.563,-123.9,193.068,380.022,-199.204,241.405,405.75,-83.9459,203.747,232.178
171,0,178.613,461.763,1141.53,171.569,191.012,1142.95,-33.8546,373.181,1205.51,-28.8326,268.83,1196.15,118.894,516.191,863.071,125.475,477.791,665.097,68.0276,471.831,496.336,44.4608,393.321,243.209,-20.8816,344.431,200.057,195.301,389.412,194.479,175.013,125.715,853.423,195.124,144.669,662.422,42.3608,142.9,518.093,-114.84,192.319,380.783,-190.879,240.676,405.212,-71.9445,202.108,234.667
172,0,177.544,462.463,1141.49,170.295,191.394,1143.71,-34.8285,374.109,1205.68,-30.0535,269.893,1196.35,116.054,516.393,862.905,120.582,478.065,664.883,62.4939,471.883,496.335,38.4768,393.209,243.309,-26.8378,344.388,200.268,189.22,389.305,194.31,177.033,125.324,855.063,202.095,144.404,664.958,50.9577,142.355,519.349,-105.252,191.558,380.74,-182.165,239.831,403.488,-58.701,200.575,236.752
173,0,176.384,463.078,1141.5,168.95,191.713,1144.49,-35.8526,374.954,1205.89,-31.3198,270.861,1196.62,113.311,516.483,862.774,115.717,478.242,664.73,56.9806,471.889,496.395,32.4957,393.108,243.463,-32.7921,344.373,200.549,183.113,389.185,194.159,178.814,125.005,856.75,208.724,144.261,667.628,59.6104,141.881,520.314,-95.1319,190.79,379.89,-173.022,238.884,400.594,-44.3094,199.162,238.415
174,0,175.136,463.611,1141.56,167.546,191.974,1145.29,-36.9202,375.713,1206.13,-32.6227,271.733,1196.96,110.656,516.469,862.679,110.893,478.331,664.636,51.4979,471.856,496.518,26.5153,393.024,243.674,-38.75,344.388,200.905,176.977,389.059,194.022,180.396,124.759,858.483,214.994,144.237,670.405,68.3076,141.479,520.978,-84.4756,190.017,378.246,-163.408,237.852,396.568,-28.8731,197.874,239.657
175,0,173.805,464.061,1141.66,166.092,192.179,1146.12,-38.0253,376.387,1206.42,-33.9541,272.505,1197.37,108.078,516.362,862.618,106.118,478.338,664.601,46.0527,471.791,496.703,20.5333,392.96,243.942,-44.7177,344.438,201.339,170.811,388.931,193.895,181.819,124.582,860.262,220.888,144.33,673.256,77.0396,141.149,521.336,-73.2807,189.243,375.836,-153.279,236.754,391.465,-12.5013,196.705,240.494
176,0,172.396,464.43,1141.82,164.599,192.334,1146.97,-39.1619,376.975,1206.75,-35.3063,273.177,1197.83,105.563,516.169,862.587,101.395,478.273,664.62,40.6486,471.7,496.949,14.5468,392.92,244.265,-50.7019,344.521,201.853,164.616,388.806,193.774,183.124,124.469,862.088,226.389,144.535,676.15,85.7971,140.89,521.387,-61.5453,188.473,372.7,-142.59,235.613,385.36,4.69477,195.639,240.956
177,0,170.914,464.722,1142.02,163.079,192.441,1147.84,-40.3248,377.478,1207.11,-36.6725,273.75,1198.36,103.094,515.902,862.584,96.725,478.146,664.69,35.2865,471.588,497.251,8.55349,392.904,244.64,-56.7093,344.638,202.447,158.395,388.688,193.657,184.345,124.411,863.959,231.486,144.846,679.051,94.5713,140.701,521.137,-49.2693,187.713,368.894,-131.298,234.452,378.338,22.6047,194.655,241.081
178,0,169.366,464.938,1142.25,161.543,192.503,1148.71,-41.5089,377.898,1207.5,-38.0459,274.224,1198.93,100.652,515.571,862.604,92.107,477.967,664.806,29.9647,471.461,497.605,2.5512,392.911,245.063,-62.7464,344.784,203.117,152.148,388.579,193.541,185.514,124.399,865.871,236.164,145.255,681.925,103.353,140.581,520.598,-36.4549,186.97,364.483,-119.364,233.292,370.502,41.1219,193.732,240.915
179,0,167.759,465.082,1142.52,160.001,192.524,1149.59,-42.7096,378.234,1207.91,-39.4205,274.602,1199.54,98.2206,515.184,862.642,87.536,477.745,664.961,24.6795,471.321,498.006,-3.46181,392.94,245.529,-68.819,344.956,203.861,145.879,388.481,193.423,186.654,124.425,867.817,240.415,145.752,684.737,112.134,140.528,519.785,-23.1074,186.25,359.545,-106.757,232.153,361.964,60.1455,192.849,240.506
180,0,166.102,465.157,1142.82,158.466,192.504,1150.46,-43.9224,378.49,1208.34,-40.79,274.887,1200.17,95.7813,514.752,862.693,83.0058,477.489,665.149,19.4255,471.172,498.447,-9.48687,392.986,246.032,-74.9313,345.147,204.67,139.59,388.394,193.302,187.781,124.477,869.786,244.229,146.33,687.451,120.903,140.539,518.72,-9.23612,185.561,354.162,-93.4548,231.051,352.847,79.5824,191.993,239.907
181,0,164.402,465.167,1143.13,156.948,192.446,1151.31,-45.1433,378.665,1208.78,-42.1486,275.08,1200.83,93.3185,514.281,862.752,78.509,477.207,665.363,14.1965,471.016,498.922,-15.525,393.045,246.563,-81.0866,345.352,205.537,133.284,388.318,193.178,188.906,124.547,871.765,247.601,146.978,690.035,129.649,140.613,517.429,5.14438,184.909,348.427,-79.4458,230.001,343.279,99.3475,191.158,239.169
182,0,162.672,465.115,1143.45,155.458,192.352,1152.15,-46.368,378.759,1209.21,-43.4899,275.185,1201.48,90.8184,513.778,862.812,74.0375,476.906,665.595,8.98545,470.854,499.423,-21.5768,393.112,247.116,-87.2858,345.562,206.452,126.962,388.25,193.048,190.028,124.624,873.733,250.53,147.685,692.459,138.361,140.746,515.941,20.0131,184.302,342.434,-64.7324,229.012,333.394,119.364,190.351,238.344
183,0,160.92,465.008,1143.77,154.009,192.223,1152.95,-47.5925,378.773,1209.63,-44.8078,275.202,1202.13,88.27,513.249,862.868,69.5833,476.592,665.839,3.7852,470.688,499.943,-27.6431,393.18,247.683,-93.5285,345.771,207.404,120.626,388.188,192.914,191.141,124.701,875.669,253.016,148.441,694.696,147.022,140.936,514.287,35.3415,183.747,336.283,-49.3317,228.089,323.327,139.563,189.588,237.481
184,0,159.16,464.848,1144.07,152.611,192.06,1153.71,-48.8124,378.706,1210.03,-46.0952,275.135,1202.75,85.6655,512.699,862.916,65.1385,476.27,666.088,-1.41103,470.516,500.475,-33.7243,393.243,248.258,-99.8124,345.971,208.38,114.275,388.129,192.775,192.231,124.769,877.543,255.064,149.236,696.721,155.618,141.179,512.504,51.0916,183.253,330.072,-33.2779,227.238,313.215,159.88,188.894,236.629
185,0,157.403,464.642,1144.34,151.276,191.865,1154.42,-50.0234,378.556,1210.4,-47.3452,274.983,1203.34,83.0003,512.13,862.949,60.6964,475.943,666.335,-6.60946,470.338,501.014,-39.821,393.297,248.835,-106.134,346.157,209.369,107.909,388.07,192.632,193.277,124.82,879.327,256.684,150.06,698.517,164.13,141.474,510.625,67.2154,182.828,323.9,-16.6227,226.458,303.19,180.256,188.304,235.834
186,0,155.663,464.395,1144.57,150.014,191.64,1155.06,-51.2207,378.321,1210.73,-48.55,274.747,1203.89,80.2732,511.546,862.964,56.2513,475.614,666.574,-11.8154,470.153,501.553,-45.9337,393.336,249.408,-112.487,346.322,210.36,101.527,388.009,192.486,194.257,124.848,880.988,257.891,150.903,700.068,172.537,141.816,508.688,83.653,182.478,317.86,0.56332,225.75,293.381,200.63,187.859,235.138
187,0,153.954,464.113,1144.74,148.837,191.387,1155.64,-52.3991,377.998,1211.02,-49.7016,274.428,1204.37,77.4861,510.948,862.957,51.799,475.285,666.802,-17.0329,469.96,502.088,-52.063,393.357,249.974,-118.867,346.463,211.344,95.1267,387.941,192.337,195.141,124.847,882.494,258.704,151.757,701.365,180.814,142.204,506.726,100.332,182.213,312.04,18.1908,225.115,283.907,220.939,187.597,234.576
188,0,152.288,463.8,1144.86,147.755,191.108,1156.14,-53.5529,377.584,1211.25,-50.7912,274.023,1204.79,74.6441,510.338,862.925,47.337,474.956,667.015,-22.2648,469.758,502.616,-58.2091,393.357,250.53,-125.268,346.577,212.313,88.707,387.865,192.186,195.9,124.813,883.812,259.148,152.612,702.404,188.935,142.635,504.772,117.168,182.041,306.52,36.1517,224.553,274.88,241.116,187.559,234.178
189,0,150.68,463.464,1144.9,146.778,190.804,1156.56,-54.6761,377.077,1211.43,-51.8101,273.533,1205.14,71.7546,509.716,862.867,42.8644,474.626,667.209,-27.5126,469.545,503.135,-64.3724,393.336,251.075,-131.684,346.661,213.262,82.2655,387.78,192.034,196.506,124.741,884.911,259.253,153.464,703.187,196.871,143.108,502.857,134.062,181.97,301.37,54.3201,224.067,266.398,261.084,187.779,233.965
190,0,149.143,463.109,1144.86,145.916,190.479,1156.88,-55.7617,376.473,1211.55,-52.749,272.957,1205.4,68.8275,509.085,862.78,38.3822,474.297,667.384,-32.776,469.321,503.644,-70.5526,393.292,251.609,-138.108,346.717,214.189,75.8002,387.685,191.881,196.934,124.628,885.767,259.054,154.304,703.719,204.591,143.623,501.008,150.902,182.008,296.646,72.5533,223.663,258.542,280.754,188.281,233.945
191,0,147.691,462.741,1144.73,145.179,190.136,1157.1,-56.8024,375.77,1211.6,-53.5985,272.292,1205.58,65.8742,508.446,862.665,33.8934,473.965,667.538,-38.0535,469.085,504.144,-76.749,393.227,252.135,-144.536,346.745,215.094,69.3094,387.578,191.726,197.162,124.473,886.358,258.589,155.129,704.009,212.059,144.178,499.245,167.565,182.164,292.389,90.6943,223.347,251.379,300.028,189.083,234.116
192,0,146.336,462.365,1144.5,144.575,189.777,1157.23,-57.7902,374.965,1211.59,-54.3493,271.54,1205.68,62.9073,507.801,862.522,29.4026,473.631,667.672,-43.3417,468.837,504.635,-82.9606,393.142,252.655,-150.965,346.747,215.981,62.7916,387.462,191.571,197.177,124.275,886.67,257.901,155.935,704.073,219.24,144.774,497.585,183.916,182.444,288.627,108.574,223.131,244.955,318.793,190.19,234.461
193,0,145.091,461.987,1144.17,144.112,189.406,1157.26,-58.7164,374.058,1211.5,-54.9923,270.699,1205.68,59.9402,507.151,862.354,24.9161,473.292,667.789,-48.6358,468.576,505.121,-89.1856,393.042,253.174,-157.39,346.726,216.857,56.2456,387.337,191.414,196.975,124.036,886.698,257.035,156.72,703.929,226.096,145.412,496.04,199.814,182.854,285.37,126.015,223.025,239.298,336.925,191.596,234.948
194,0,143.967,461.611,1143.74,143.798,189.024,1157.18,-59.572,373.05,1211.34,-55.5186,269.772,1205.6,56.9866,506.5,862.161,20.442,472.946,667.889,-53.9297,468.302,505.607,-95.4222,392.928,253.696,-163.811,346.686,217.731,49.6706,387.203,191.255,196.563,123.759,886.443,256.039,157.483,703.596,232.588,146.093,494.615,215.111,183.402,282.61,142.834,223.042,234.414,354.291,193.286,235.534
195,0,142.975,461.241,1143.2,143.638,188.635,1157.01,-60.3471,371.942,1211.12,-55.92,268.76,1205.44,54.0604,505.85,861.948,15.9902,472.592,667.977,-59.2157,468.015,506.095,-101.668,392.806,254.228,-170.225,346.631,218.613,43.0657,387.065,191.093,195.958,123.449,885.917,254.961,158.223,703.096,238.68,146.82,493.31,229.656,184.09,280.324,158.85,223.198,230.29,370.748,195.233,236.163
196,0,142.123,460.879,1142.57,143.638,188.24,1156.74,-61.0316,370.737,1210.83,-56.1887,267.668,1205.19,51.1751,505.205,861.718,11.5717,472.227,668.055,-64.4846,467.716,506.592,-107.92,392.679,254.777,-176.633,346.565,219.516,36.4302,386.922,190.928,195.192,123.115,885.141,253.848,158.942,702.454,244.333,147.593,492.118,243.303,184.92,278.476,173.883,223.505,226.892,386.152,197.403,236.769
197,0,141.421,460.527,1141.83,143.804,187.843,1156.37,-61.6151,369.443,1210.47,-56.3179,266.499,1204.86,48.3442,504.566,861.474,7.19963,471.849,668.128,-69.7261,467.403,507.103,-114.177,392.551,255.351,-183.034,346.494,220.453,29.7632,386.777,190.76,194.308,122.765,884.143,252.745,159.641,701.691,249.512,148.414,491.029,255.909,185.894,277.016,187.766,223.977,224.17,400.361,199.757,237.283
198,0,140.875,460.188,1141,144.137,187.443,1155.93,-62.0869,368.064,1210.06,-56.3015,265.262,1204.47,45.581,503.938,861.22,2.88831,471.457,668.199,-74.9284,467.079,507.634,-120.436,392.426,255.958,-189.43,346.42,221.439,23.0636,386.631,190.587,193.359,122.412,882.961,251.695,160.323,700.833,254.188,149.284,490.03,267.345,187.008,275.882,200.344,224.623,222.059,413.238,202.248,237.636
199,0,140.491,459.861,1140.08,144.642,187.043,1155.4,-62.4363,366.612,1209.58,-56.1347,263.962,1204.01,42.8985,503.323,860.959,-1.34613,471.047,668.273,-80.0783,466.741,508.192,-126.695,392.307,256.608,-195.821,346.349,222.488,16.3303,386.487,190.41,192.41,122.07,881.636,250.737,160.99,699.899,258.332,150.204,489.101,277.495,188.258,275.008,211.484,225.449,220.483,424.659,204.828,237.762
200,0,140.274,459.545,1139.08,145.318,186.641,1154.81,-62.6527,365.098,1209.06,-55.8136,262.611,1203.49,40.3101,502.722,860.696,-5.48588,470.619,668.353,-85.1614,466.39,508.781,-132.953,392.196,257.308,-202.21,346.284,223.612,9.56161,386.345,190.23,191.529,121.753,880.213,249.903,161.645,698.912,261.923,151.171,488.224,286.263,189.635,274.325,221.078,226.458,219.358,434.521,207.446,237.605
201,0,140.228,459.237,1138.02,146.167,186.239,1154.17,-62.726,363.533,1208.5,-55.3353,261.218,1202.92,37.8297,502.138,860.433,-9.51127,470.17,668.441,-90.1616,466.025,509.407,-139.209,392.097,258.07,-208.597,346.229,224.826,2.75636,386.206,190.049,190.79,121.479,878.74,249.219,162.289,697.889,264.946,152.184,487.378,293.579,191.127,273.763,229.046,227.647,218.596,442.744,210.054,237.121
202,0,140.353,458.936,1136.9,147.187,185.834,1153.48,-62.6463,361.933,1207.9,-54.6984,259.794,1202.31,35.4719,501.57,860.172,-13.4006,469.7,668.539,-95.0612,465.645,510.074,-145.461,392.01,258.903,-214.984,346.185,226.142,-4.08655,386.07,189.87,190.264,121.265,877.262,248.708,162.926,696.847,267.393,153.239,486.543,299.397,192.719,273.255,235.339,229.006,218.109,449.277,212.602,236.286
203,0,140.653,458.637,1135.74,148.377,185.424,1152.76,-62.405,360.312,1207.27,-53.9025,258.351,1201.68,33.2527,501.017,859.917,-17.1301,469.206,668.649,-99.8409,465.251,510.787,-151.709,391.936,259.817,-221.372,346.155,227.57,-10.9674,385.939,189.694,190.015,121.124,875.823,248.38,163.555,695.799,269.263,154.329,485.699,303.701,194.392,272.745,239.946,230.521,217.815,454.103,215.046,235.094
204,0,141.126,458.334,1134.56,149.732,185.008,1152.02,-61.994,358.686,1206.62,-52.9483,256.9,1201.02,31.1895,500.478,859.666,-20.6734,468.69,668.77,-104.479,464.841,511.546,-157.95,391.875,260.822,-227.759,346.141,229.123,-17.8855,385.812,189.526,190.101,121.073,874.462,248.242,164.177,694.758,270.564,155.449,484.831,306.505,196.126,272.181,242.888,232.168,217.638,457.24,217.345,233.56
205,0,141.77,458.021,1133.36,151.25,184.582,1151.27,-61.407,357.071,1205.95,-51.838,255.454,1200.34,29.3014,499.95,859.421,-24.002,468.153,668.899,-108.952,464.417,512.355,-164.179,391.827,261.927,-234.146,346.145,230.809,-24.8383,385.689,189.37,190.563,121.122,873.209,248.291,164.792,693.731,271.311,156.587,483.926,307.854,197.896,271.528,244.22,233.919,217.512,458.744,219.465,231.717
206,0,142.583,457.692,1132.16,152.923,184.142,1150.53,-60.6389,355.484,1205.29,-50.5748,254.022,1199.67,27.6096,499.43,859.181,-27.0845,467.595,669.034,-113.234,463.98,513.213,-170.389,391.791,263.141,-240.526,346.168,232.639,-31.8217,385.57,189.231,191.425,121.278,872.086,248.518,165.397,692.724,271.526,157.735,482.973,307.818,199.674,270.759,244.032,235.743,217.383,458.701,221.38,229.618
207,0,143.56,457.34,1130.98,154.747,183.686,1149.82,-59.6866,353.938,1204.62,-49.163,252.616,1199.01,26.1371,498.914,858.944,-29.8872,467.022,669.168,-117.297,463.531,514.118,-176.57,391.768,264.471,-246.895,346.211,234.624,-38.829,385.454,189.113,192.694,121.545,871.109,248.907,165.989,691.743,271.237,158.879,481.967,306.497,201.434,269.863,242.44,237.6,217.211,457.233,223.07,227.327
208,0,144.697,456.957,1129.83,156.711,183.209,1149.13,-58.5489,352.447,1203.98,-47.6081,251.242,1198.36,24.9087,498.397,858.707,-32.3736,466.437,669.294,-121.11,463.075,515.069,-182.706,391.757,265.924,-253.243,346.276,236.772,-45.8516,385.341,189.022,194.353,121.92,870.28,249.436,166.565,690.79,270.48,160.006,480.906,304.008,203.147,268.838,239.582,239.451,216.968,454.483,224.525,224.92
209,0,145.985,456.534,1128.73,158.808,182.707,1148.48,-57.2271,351.023,1203.35,-45.9169,249.909,1197.75,23.9508,497.876,858.468,-34.5054,465.847,669.404,-124.638,462.616,516.06,-188.778,391.759,267.504,-259.553,346.365,239.095,-52.8787,385.23,188.959,196.37,122.395,869.597,250.077,167.118,689.865,269.292,161.104,479.794,300.488,204.786,267.695,235.616,241.257,216.64,450.617,225.743,222.472
210,0,147.416,456.066,1127.69,161.028,182.175,1147.89,-55.7249,349.675,1202.75,-44.0973,248.621,1197.17,23.291,497.347,858.221,-36.2418,465.259,669.488,-127.846,462.161,517.086,-194.76,391.775,269.216,-265.807,346.48,241.605,-59.8977,385.119,188.926,198.69,122.955,869.047,250.799,167.642,688.968,267.716,162.157,478.635,296.083,206.325,266.452,230.708,242.976,216.223,445.808,226.731,220.061
211,0,148.98,455.544,1126.71,163.359,181.611,1147.35,-54.0486,348.41,1202.2,-42.1581,247.38,1196.64,22.9573,496.807,857.962,-37.5412,464.685,669.533,-130.697,461.718,518.142,-200.619,391.808,271.063,-271.978,346.625,244.317,-66.895,385.007,188.925,201.248,123.582,868.612,251.566,168.129,688.097,265.795,163.152,477.439,290.944,207.741,265.135,225.027,244.574,215.723,440.237,227.503,217.754
212,0,150.667,454.963,1125.82,165.788,181.011,1146.88,-52.207,347.233,1201.68,-40.1095,246.188,1196.16,22.9776,496.255,857.686,-38.361,464.134,669.527,-133.149,461.298,519.221,-206.316,391.863,273.046,-278.034,346.804,247.245,-73.8571,384.89,188.953,203.964,124.252,868.27,252.342,168.572,687.249,263.572,164.076,476.217,285.221,209.015,263.772,218.739,246.018,215.153,434.076,228.078,215.609
213,0,152.462,454.315,1125.01,168.304,180.371,1146.48,-50.2121,346.144,1201.22,-37.9628,245.043,1195.75,23.379,495.689,857.387,-38.6586,463.618,669.458,-135.163,460.913,520.314,-211.807,391.943,275.166,-283.932,347.021,250.408,-80.7707,384.765,189.005,206.754,124.936,867.997,253.087,168.961,686.422,261.088,164.916,474.981,279.057,210.132,262.393,212.002,247.282,214.531,427.487,228.482,213.669
214,0,154.35,453.598,1124.3,170.89,179.689,1146.15,-48.0783,345.142,1200.82,-35.7303,243.942,1195.41,24.1865,495.112,857.062,-38.3928,463.151,669.312,-136.697,460.574,521.414,-217.042,392.056,277.425,-289.626,347.282,253.825,-87.6244,384.627,189.076,209.534,125.605,867.765,253.765,169.288,685.611,258.381,165.661,473.744,272.584,211.082,261.028,204.958,248.35,213.878,420.614,228.744,211.962
215,0,156.318,452.808,1123.69,173.533,178.964,1145.88,-45.8229,344.221,1200.47,-33.4255,242.88,1195.15,25.4224,494.527,856.704,-37.5245,462.746,669.077,-137.709,460.297,522.515,-221.968,392.21,279.826,-295.058,347.591,257.52,-94.409,384.469,189.158,212.222,126.228,867.553,254.336,169.543,684.813,255.485,166.301,472.52,265.919,211.86,259.704,197.73,249.211,213.214,413.581,228.891,210.501
216,0,158.346,451.942,1123.18,176.217,178.195,1145.69,-43.4656,343.373,1200.18,-31.0627,241.849,1194.96,27.1056,493.938,856.31,-36.0177,462.417,668.742,-138.16,460.095,523.609,-226.527,392.414,282.37,-300.165,347.954,261.515,-101.118,384.284,189.243,214.744,126.775,867.338,254.766,169.719,684.024,252.432,166.83,471.32,259.161,212.467,258.444,190.421,249.862,212.559,406.486,228.955,209.282
217,0,160.417,451.002,1122.77,178.924,177.382,1145.55,-41.0284,342.589,1199.96,-28.6575,240.843,1194.85,29.2501,493.352,855.877,-33.8412,462.175,668.296,-138.013,459.982,524.692,-230.662,392.677,285.064,-304.878,348.375,265.836,-107.746,384.067,189.323,217.037,127.218,867.105,255.021,169.807,683.242,249.244,167.241,470.155,252.388,212.909,257.264,183.115,250.31,211.93,399.405,228.961,208.292
218,0,162.51,449.988,1122.47,181.638,176.524,1145.48,-38.5353,341.855,1199.79,-26.226,239.852,1194.82,31.8649,492.776,855.403,-30.9693,462.034,667.735,-137.233,459.973,525.76,-234.315,393.008,287.914,-309.126,348.859,270.508,-114.292,383.81,189.393,219.052,127.533,866.84,255.073,169.799,682.463,245.942,167.53,469.034,245.662,213.195,256.177,175.871,250.566,211.34,392.39,228.934,207.507
219,0,164.608,448.903,1122.26,184.342,175.624,1145.46,-36.0118,341.158,1199.68,-23.7855,238.867,1194.88,34.9526,492.22,854.888,-27.3828,462.001,667.052,-135.791,460.079,526.813,-237.435,393.418,290.931,-312.832,349.407,275.554,-120.751,383.508,189.452,220.752,127.699,866.536,254.896,169.691,681.684,242.539,167.697,467.964,239.023,213.339,255.19,168.733,250.65,210.799,385.474,228.892,206.897
220,0,166.688,447.754,1122.16,187.017,174.685,1145.48,-33.4848,340.482,1199.62,-21.3536,237.879,1195.01,38.5096,491.692,854.335,-23.0705,462.085,666.25,-133.663,460.31,527.85,-239.97,393.914,294.129,-315.924,350.021,280.996,-127.118,383.161,189.506,222.113,127.701,866.191,254.469,169.476,680.903,239.044,167.741,466.95,232.497,213.356,254.304,161.724,250.585,210.313,378.673,228.851,206.429
221,0,168.73,446.545,1122.14,189.647,173.708,1145.54,-30.9817,339.811,1199.61,-18.9483,236.88,1195.21,42.5251,491.201,853.746,-18.0293,462.291,665.333,-130.832,460.674,528.875,-241.879,394.504,297.52,-318.333,350.698,286.849,-133.382,382.773,189.566,223.126,127.531,865.806,253.775,169.153,680.119,235.465,167.667,465.994,226.095,213.265,253.516,154.857,250.395,209.882,371.987,228.82,206.069
222,0,170.714,445.286,1122.2,192.213,172.699,1145.62,-28.5301,339.13,1199.63,-16.5879,235.861,1195.47,46.9811,490.757,853.129,-12.2651,462.619,664.309,-127.288,461.175,529.893,-243.127,395.192,301.124,-319.996,351.433,293.122,-139.522,382.353,189.656,223.788,127.185,865.384,252.806,168.72,679.331,231.803,167.477,465.097,219.817,213.082,252.821,148.13,250.108,209.505,365.412,228.8,205.784
223,0,172.621,443.986,1122.35,194.7,171.66,1145.72,-26.1571,338.424,1199.69,-14.2906,234.817,1195.8,51.8526,490.367,852.491,-5.793,463.067,663.192,-123.026,461.813,530.913,-243.69,395.982,304.954,-320.862,352.22,299.814,-145.506,381.92,189.808,224.105,126.664,864.933,251.553,168.178,678.539,228.059,167.179,464.258,213.654,212.826,252.21,141.537,249.749,209.179,358.933,228.792,205.546
224,0,174.431,442.654,1122.57,197.089,170.598,1145.83,-23.889,337.678,1199.76,-12.0744,233.741,1196.17,57.1075,490.038,851.844,1.36265,463.63,662.001,-118.053,462.585,531.943,-243.55,396.872,309.027,-320.892,353.048,306.912,-151.285,381.503,190.063,224.087,125.974,864.458,250.018,167.53,677.742,224.232,166.782,463.474,207.593,212.514,251.671,135.065,249.344,208.898,352.537,228.791,205.332
225,0,176.127,441.303,1122.85,199.366,169.518,1145.93,-21.7502,336.882,1199.85,-9.95638,232.631,1196.58,62.7073,489.774,851.2,9.16861,464.298,660.759,-112.383,463.484,532.995,-242.702,397.859,313.353,-320.064,353.904,314.391,-156.792,381.139,190.473,223.749,125.124,863.966,248.204,166.782,676.942,220.322,166.294,462.743,201.617,212.16,251.195,128.698,248.913,208.654,346.209,228.787,205.122
226,0,177.693,439.943,1123.18,201.517,168.425,1146.03,-19.7634,336.025,1199.94,-7.95303,231.485,1197.03,68.6075,489.578,850.575,17.5831,465.06,659.493,-106.038,464.499,534.081,-241.148,398.937,317.938,-318.372,354.769,322.207,-161.942,380.878,191.095,223.105,124.128,863.464,246.119,165.942,676.139,216.327,165.727,462.058,195.709,211.777,250.77,122.422,248.476,208.442,339.937,228.772,204.905
227,0,179.115,438.588,1123.57,203.528,167.325,1146.1,-17.9484,335.1,1200.03,-6.07944,230.304,1197.49,74.7585,489.449,849.986,26.5568,465.9,658.236,-99.0463,465.614,535.214,-238.899,400.096,322.778,-315.826,355.626,330.3,-166.628,380.777,191.989,222.171,123.002,862.955,243.776,165.02,675.337,212.248,165.093,461.417,189.853,211.376,250.387,116.221,248.045,208.253,333.709,228.736,204.671
228,0,180.381,437.247,1124.01,205.387,166.225,1146.16,-16.3221,334.105,1200.12,-4.34921,229.089,1197.96,81.1069,489.385,849.449,36.0334,466.802,657.022,-91.4466,466.812,536.406,-235.973,401.322,327.861,-312.454,356.454,338.592,-170.726,380.902,193.216,220.961,121.766,862.443,241.191,164.027,674.537,208.086,164.406,460.814,184.036,210.967,250.034,110.082,247.633,208.082,327.52,228.669,204.417
229,0,181.482,435.934,1124.49,207.084,165.13,1146.18,-14.8983,333.038,1200.19,-2.77419,227.844,1198.44,87.5962,489.382,848.986,45.951,467.746,655.886,-83.2824,468.07,537.667,-232.391,402.601,333.162,-308.296,357.231,346.989,-174.097,381.318,194.826,219.492,120.439,861.931,238.382,162.978,673.741,203.842,163.679,460.245,178.246,210.558,249.706,103.996,247.247,207.922,321.365,228.564,204.143
230,0,182.41,434.658,1125.01,208.611,164.046,1146.17,-13.6868,331.9,1200.25,-1.36422,226.576,1198.9,94.1682,489.434,848.613,56.2431,468.714,654.867,-74.6032,469.367,539.007,-228.179,403.918,338.64,-303.407,357.936,355.379,-176.592,382.094,196.859,217.78,119.046,861.417,235.368,161.889,672.953,199.521,162.927,459.705,172.476,210.154,249.394,97.9532,246.892,207.77,315.243,228.417,203.852
231,0,183.16,433.43,1125.56,209.961,162.981,1146.12,-12.6941,330.698,1200.3,-0.126903,225.29,1199.36,100.765,489.531,848.352,66.84,469.686,654.001,-65.4634,470.679,540.433,-223.363,405.255,344.243,-297.849,358.55,363.635,-178.059,383.288,199.34,215.842,117.611,860.905,232.17,160.775,672.176,195.126,162.165,459.192,166.719,209.761,249.095,91.9479,246.571,207.621,309.155,228.226,203.548
232,0,183.73,432.258,1126.15,211.129,161.938,1146.04,-11.9228,329.438,1200.33,0.932448,223.996,1199.79,107.328,489.666,848.219,77.67,470.643,653.327,-55.9208,471.98,541.948,-217.968,406.595,349.903,-291.688,359.059,371.622,-178.349,384.947,202.268,213.7,116.16,860.392,228.81,159.654,671.413,190.661,161.406,458.703,160.972,209.384,248.804,85.9757,246.285,207.472,303.1,227.994,203.237
233,0,184.119,431.148,1126.77,212.114,160.925,1145.93,-11.3719,328.131,1200.35,1.81095,222.702,1200.2,113.803,489.829,848.232,88.6601,471.568,652.877,-46.0356,473.249,543.552,-212.016,407.924,355.537,-284.99,359.456,379.196,-177.324,387.097,205.62,211.375,114.72,859.881,225.307,158.544,670.667,186.133,160.665,458.235,155.235,209.025,248.52,80.0334,246.035,207.324,297.08,227.727,202.925
234,0,184.331,430.108,1127.43,212.912,159.947,1145.78,-11.0369,326.789,1200.38,2.50815,221.416,1200.59,120.138,490.009,848.405,99.7376,472.446,652.683,-35.869,474.463,545.241,-205.526,409.228,361.052,-277.818,359.738,386.212,-174.864,389.742,209.346,208.891,113.318,859.371,221.681,157.462,669.943,181.547,159.953,457.789,149.507,208.69,248.243,74.1186,245.819,207.174,291.096,227.433,202.618
235,0,184.369,429.14,1128.13,213.527,159.008,1145.6,-10.9103,325.426,1200.4,3.02593,220.148,1200.95,126.286,490.199,848.752,110.831,473.263,652.77,-25.4822,475.603,547.005,-198.514,410.496,366.345,-270.228,359.915,392.525,-170.875,392.859,213.372,206.277,111.98,858.863,217.95,156.424,669.243,176.907,159.284,457.364,143.787,208.38,247.973,68.2291,245.637,207.024,285.145,227.122,202.321
236,0,184.241,428.249,1128.86,213.96,158.114,1145.39,-10.9816,324.056,1200.45,3.36844,218.908,1201.28,132.205,490.389,849.281,121.87,474.009,653.161,-14.9355,476.653,548.832,-190.989,411.721,371.306,-262.265,360.002,398.002,-165.289,396.395,217.599,203.558,110.732,858.36,214.127,155.445,668.57,172.216,158.666,456.961,138.076,208.099,247.711,62.3628,245.488,206.876,279.226,226.805,202.04
237,0,183.953,427.434,1129.64,214.215,157.27,1145.17,-11.2382,322.693,1200.52,3.54184,217.704,1201.6,137.861,490.574,850.001,132.787,474.676,653.869,-4.28675,477.602,550.704,-182.954,412.899,375.825,-253.961,360.026,402.517,-158.071,400.269,221.913,200.763,109.597,857.864,210.227,154.538,667.929,167.479,158.107,456.58,132.373,207.848,247.46,56.5171,245.37,206.73,273.334,226.491,201.778
238,0,183.516,426.696,1130.46,214.297,156.478,1144.92,-11.6655,321.353,1200.62,3.55413,216.544,1201.9,143.225,490.749,850.913,143.518,475.26,654.902,6.40898,478.44,552.602,-174.411,414.029,379.791,-245.334,360.021,405.965,-149.22,404.377,226.184,197.92,108.595,857.377,206.259,153.714,667.322,162.697,157.615,456.224,126.677,207.627,247.222,50.6888,245.279,206.592,267.464,226.192,201.538
239,0,182.94,426.034,1131.33,214.214,155.744,1144.67,-12.2477,320.051,1200.77,3.41481,215.435,1202.19,148.275,490.91,852.019,154,475.758,656.262,17.1002,479.165,554.498,-165.354,415.114,383.102,-236.389,360.024,408.259,-138.764,408.597,230.282,195.052,107.741,856.902,202.229,152.981,666.751,157.871,157.193,455.894,120.986,207.438,247,44.8743,245.215,206.465,261.608,225.915,201.322
240,0,182.237,425.445,1132.24,213.974,155.07,1144.41,-12.9678,318.799,1200.97,3.13457,214.382,1202.47,152.995,491.058,853.315,164.176,476.172,657.942,27.7395,479.777,556.367,-155.777,416.158,385.665,-227.115,360.078,409.334,-126.763,412.799,234.076,192.182,107.049,856.441,198.144,152.346,666.219,153.001,156.844,455.593,115.296,207.28,246.799,39.0694,245.172,206.354,255.76,225.665,201.131
241,0,181.419,424.926,1133.21,213.584,154.459,1144.15,-13.809,317.611,1201.24,2.72492,213.392,1202.76,157.379,491.195,854.793,173.992,476.503,659.927,38.2838,480.279,558.178,-145.67,417.166,387.401,-217.49,360.224,409.151,-113.3,416.853,237.448,189.328,106.523,855.997,194.005,151.811,665.728,148.085,156.567,455.323,109.603,207.15,246.62,33.2694,245.149,206.264,249.913,225.445,200.964
242,0,180.5,424.474,1134.23,213.054,153.914,1143.89,-14.7541,316.496,1201.58,2.19786,212.468,1203.05,161.422,491.323,856.444,183.397,476.755,662.198,48.6945,480.679,559.9,-135.023,418.146,388.251,-207.479,360.496,407.694,-98.4772,420.638,240.299,186.503,106.167,855.572,189.814,151.376,665.279,143.123,156.36,455.086,103.904,207.047,246.469,27.4693,245.14,206.2,244.058,225.256,200.822
243,0,179.491,424.082,1135.3,212.392,153.435,1143.64,-15.7869,315.465,1202,1.56554,211.614,1203.35,165.128,491.448,858.255,192.344,476.934,664.727,58.9373,480.986,561.501,-123.827,419.102,388.175,-197.042,360.924,404.973,-82.413,424.054,242.551,183.715,105.977,855.167,185.568,151.04,664.873,138.112,156.221,454.884,98.1929,206.968,246.346,21.6642,245.143,206.17,238.189,225.096,200.701
244,0,178.407,423.748,1136.43,211.609,153.024,1143.4,-16.8919,314.523,1202.5,0.839867,210.831,1203.68,168.504,491.577,860.21,200.792,477.047,667.481,68.9821,481.212,562.951,-112.072,420.041,387.157,-186.129,361.524,401.02,-65.2336,427.024,244.158,180.967,105.945,854.784,181.267,150.799,664.51,133.049,156.145,454.717,92.4653,206.909,246.255,15.8492,245.152,206.177,232.302,224.961,200.599
245,0,177.26,423.467,1137.6,210.715,152.682,1143.17,-18.0547,313.677,1203.08,0.0322901,210.121,1204.02,171.559,491.718,862.29,208.703,477.1,670.421,78.8023,481.37,564.218,-99.7523,420.964,385.202,-174.691,362.305,395.891,-47.069,429.507,245.1,178.257,106.059,854.424,176.909,150.645,664.19,127.932,156.125,454.588,86.7165,206.868,246.198,10.0196,245.166,206.228,226.39,224.847,200.513
246,0,176.062,423.234,1138.81,209.717,152.408,1142.95,-19.2626,312.929,1203.74,-0.846514,209.485,1204.4,174.307,491.879,864.474,216.044,477.1,673.505,88.375,481.471,565.277,-86.8664,421.875,382.339,-162.679,363.258,389.661,-28.0485,431.489,245.393,175.576,106.305,854.086,172.49,150.571,663.912,122.76,156.155,454.497,80.942,206.84,246.176,4.17126,245.181,206.326,220.452,224.749,200.439
247,0,174.826,423.046,1140.06,208.626,152.199,1142.75,-20.5041,312.282,1204.48,-1.78681,208.924,1204.8,176.759,492.069,866.74,222.787,477.054,676.688,97.6799,481.528,566.103,-73.4168,422.772,378.62,-150.048,364.366,382.422,-8.2974,432.992,245.078,172.915,106.664,853.772,168.01,150.568,663.674,117.531,156.229,454.442,75.1379,206.824,246.189,-1.6995,245.196,206.475,214.484,224.66,200.373
248,0,173.563,422.897,1141.34,207.45,152.056,1142.56,-21.7695,311.735,1205.28,-2.77994,208.437,1205.22,178.93,492.296,869.063,228.909,476.969,679.923,106.699,481.552,566.676,-59.4127,423.651,374.117,-136.761,365.602,374.283,12.0653,434.063,244.227,170.257,107.118,853.48,163.468,150.627,663.474,112.244,156.339,454.424,69.3012,206.818,246.237,-7.59567,245.209,206.678,208.486,224.577,200.31
249,0,172.284,422.787,1142.65,206.197,151.974,1142.38,-23.0505,311.288,1206.14,-3.81842,208.025,1205.67,180.832,492.568,871.418,234.394,476.849,683.163,115.416,481.55,566.981,-44.8708,424.509,368.917,-122.791,366.929,365.364,32.9283,434.77,242.929,167.587,107.645,853.21,158.865,150.738,663.308,106.902,156.477,454.441,63.4292,206.819,246.319,-13.5196,245.221,206.935,202.458,224.495,200.247
250,0,170.999,422.71,1143.97,204.875,151.951,1142.21,-24.3401,310.938,1207.05,-4.89592,207.689,1206.15,182.476,492.89,873.777,239.233,476.7,686.36,123.816,481.531,567.009,-29.8172,425.338,363.126,-108.126,368.308,355.798,54.1874,435.193,241.294,164.887,108.227,852.962,154.204,150.891,663.175,101.505,156.638,454.491,57.5204,206.828,246.434,-19.4728,245.232,207.245,196.398,224.41,200.179
251,0,169.717,422.667,1145.29,203.491,151.982,1142.05,-25.6326,310.683,1207.98,-6.00721,207.427,1206.63,183.871,493.267,876.113,243.42,476.527,689.469,131.885,481.498,566.756,-14.2881,426.133,356.859,-92.7702,369.697,345.723,75.7445,435.418,239.438,162.137,108.844,852.735,149.488,151.076,663.069,96.058,156.815,454.572,51.5738,206.844,246.58,-25.4564,245.245,207.608,190.308,224.321,200.105
252,0,168.448,422.654,1146.59,202.053,152.063,1141.89,-26.9234,310.52,1208.94,-7.14807,207.242,1207.13,185.023,493.701,878.398,246.96,476.333,692.449,139.609,481.454,566.225,1.66803,426.886,350.237,-76.7474,371.056,335.284,97.5055,435.528,237.483,159.323,109.48,852.529,144.725,151.285,662.988,90.5651,157.001,454.68,45.5892,206.868,246.755,-31.4708,245.26,208.02,184.189,224.225,200.02
253,0,167.199,422.671,1147.88,200.568,152.188,1141.73,-28.2085,310.444,1209.89,-8.31511,207.133,1207.63,185.939,494.193,880.603,249.863,476.122,695.259,146.975,481.4,565.423,17.9897,427.589,343.389,-60.1013,372.35,324.628,119.377,435.595,235.545,156.431,110.119,852.343,139.921,151.511,662.926,85.0322,157.193,454.812,39.5674,206.9,246.956,-37.5159,245.28,208.478,178.04,224.123,199.924
254,0,165.978,422.717,1149.12,199.042,152.353,1141.57,-29.4847,310.452,1210.83,-9.5056,207.103,1208.11,186.62,494.74,882.701,252.146,475.895,697.867,153.971,481.336,564.364,34.6012,428.235,336.439,-42.8982,373.548,313.903,141.265,435.675,233.732,153.451,110.75,852.176,135.085,151.745,662.88,79.4663,157.385,454.966,33.5094,206.942,247.18,-43.5911,245.304,208.977,171.862,224.015,199.814
255,0,164.791,422.791,1150.32,197.482,152.551,1141.4,-30.7489,310.542,1211.74,-10.7172,207.151,1208.58,187.069,495.338,884.667,253.832,475.655,700.242,160.582,481.258,563.068,51.4119,428.816,329.51,-25.2272,374.624,303.252,163.069,435.809,232.137,150.379,111.364,852.026,130.229,151.983,662.844,73.8751,157.572,455.138,27.4173,206.994,247.424,-49.6955,245.335,209.512,165.656,223.901,199.691
256,0,163.646,422.894,1151.45,195.894,152.778,1141.21,-31.998,310.711,1212.59,-11.9477,207.28,1209.02,187.286,495.979,886.473,254.954,475.403,702.361,166.798,481.163,561.556,68.3163,429.328,322.715,-7.20056,375.559,292.816,184.681,436.015,230.831,147.218,111.956,851.892,125.364,152.219,662.815,68.267,157.752,455.324,21.2936,207.056,247.685,-55.828,245.371,210.078,159.42,223.783,199.554
257,0,162.548,423.025,1152.51,194.286,153.028,1141.01,-33.229,310.957,1213.39,-13.1949,207.491,1209.43,187.274,496.657,888.099,255.549,475.142,704.207,172.604,481.049,559.856,85.1942,429.762,316.159,11.0469,376.339,282.723,205.982,436.298,229.864,143.974,112.522,851.77,120.501,152.45,662.788,62.6508,157.921,455.521,15.1411,207.127,247.961,-61.9871,245.412,210.671,153.156,223.662,199.403
258,0,161.503,423.185,1153.48,192.664,153.295,1140.8,-34.4384,311.278,1214.1,-14.4562,207.786,1209.78,187.036,497.358,889.523,255.658,474.871,705.768,177.99,480.911,557.997,101.912,430.114,309.93,29.3595,376.955,273.095,226.843,436.643,229.258,140.66,113.064,851.656,115.653,152.672,662.761,57.0354,158.076,455.726,8.96348,207.206,248.249,-68.1714,245.454,211.287,146.863,223.54,199.24
259,0,160.516,423.374,1154.35,191.036,153.575,1140.56,-35.6223,311.672,1214.72,-15.7285,208.166,1210.08,186.576,498.073,890.729,255.328,474.594,707.037,182.944,480.745,556.008,118.326,430.377,304.103,47.5623,377.401,264.037,247.124,437.027,229.009,137.295,113.584,851.546,110.831,152.883,662.728,51.4297,158.215,455.937,2.7643,207.29,248.547,-74.3792,245.494,211.922,140.541,223.417,199.065
260,0,159.593,423.592,1155.11,189.411,153.865,1140.29,-36.7764,312.14,1215.25,-17.008,208.632,1210.31,185.903,498.787,891.704,254.611,474.31,708.013,187.456,480.549,553.921,134.282,430.547,298.735,65.465,377.673,255.639,266.673,437.418,229.087,133.902,114.086,851.433,106.048,153.083,662.689,45.8423,158.334,456.152,-3.45243,207.376,248.855,-80.6088,245.527,212.574,134.191,223.293,198.878
261,0,158.736,423.84,1155.75,187.796,154.161,1140,-37.896,312.681,1215.66,-18.2901,209.183,1210.47,185.029,499.488,892.437,253.558,474.022,708.702,191.516,480.319,551.766,149.622,430.617,293.863,82.8652,377.769,247.973,285.331,437.783,229.438,130.503,114.574,851.312,101.314,153.271,662.64,40.2812,158.433,456.368,-9.68268,207.46,249.171,-86.8587,245.547,213.243,127.813,223.168,198.681
262,0,157.953,424.118,1156.27,186.2,154.462,1139.68,-38.9758,313.295,1215.96,-19.5692,209.821,1210.55,183.972,500.163,892.926,252.224,473.73,709.112,195.116,480.055,549.57,164.187,430.582,289.506,99.5533,377.689,241.092,302.936,438.086,229.987,127.124,115.053,851.176,96.6403,153.447,662.579,34.7539,158.509,456.585,-15.9225,207.535,249.496,-93.1272,245.548,213.927,121.408,223.042,198.474
263,0,157.246,424.426,1156.66,184.633,154.765,1139.34,-40.01,313.982,1216.13,-20.8387,210.543,1210.54,182.753,500.8,893.171,250.661,473.438,709.255,198.249,479.755,547.36,177.821,430.438,285.666,115.319,377.437,235.029,319.326,438.297,230.643,123.79,115.527,851.021,92.0362,153.612,662.506,29.2676,158.561,456.801,-22.1681,207.598,249.83,-99.4128,245.524,214.629,114.975,222.912,198.258
264,0,156.62,424.765,1156.93,183.104,155.072,1138.96,-40.9929,314.74,1216.19,-22.0911,211.348,1210.46,181.399,501.387,893.176,248.92,473.146,709.147,200.91,479.419,545.159,190.376,430.182,282.327,129.954,377.017,229.795,334.345,438.392,231.308,120.522,115.998,850.84,87.511,153.768,662.418,23.8286,158.59,457.016,-28.416,207.64,250.176,-105.714,245.468,215.351,108.517,222.778,198.033
265,0,156.079,425.135,1157.06,181.624,155.383,1138.57,-41.9183,315.57,1216.12,-23.318,212.233,1210.28,179.94,501.915,892.951,247.049,472.857,708.807,203.095,479.049,542.985,201.718,429.811,279.46,143.266,376.441,225.382,347.853,438.352,231.877,117.338,116.467,850.632,83.0737,153.917,662.316,18.4428,158.594,457.232,-34.6633,207.656,250.535,-112.03,245.373,216.096,102.033,222.635,197.799
266,0,155.626,425.537,1157.07,180.201,155.701,1138.15,-42.7801,316.469,1215.94,-24.5103,213.193,1210.02,178.413,502.378,892.513,245.092,472.574,708.253,204.803,478.647,540.854,211.731,429.324,277.022,155.075,375.722,221.764,359.725,438.17,232.253,114.252,116.934,850.393,78.7329,154.062,662.199,13.1162,158.574,457.448,-40.9075,207.639,250.912,-118.36,245.233,216.869,95.5233,222.481,197.558
267,0,155.264,425.971,1156.96,178.848,156.029,1137.71,-43.5723,317.436,1215.64,-25.6582,214.225,1209.68,176.854,502.771,891.878,243.087,472.299,707.509,206.035,478.218,538.779,220.322,428.725,274.961,165.229,374.881,218.898,369.866,437.842,232.35,111.274,117.399,850.123,74.4981,154.209,662.066,7.85446,158.533,457.666,-47.1466,207.586,251.311,-124.703,245.045,217.674,88.9884,222.313,197.309
268,0,154.996,426.438,1156.73,177.573,156.371,1137.25,-44.2896,318.467,1215.24,-26.7517,215.322,1209.26,175.302,503.093,891.068,241.066,472.035,706.594,206.794,477.765,536.767,227.422,428.017,273.219,173.607,373.943,216.724,378.209,437.375,232.1,108.409,117.858,849.823,70.3793,154.361,661.917,2.66372,158.473,457.887,-53.3791,207.49,251.737,-131.058,244.805,218.518,82.4278,222.128,197.055
269,0,154.825,426.939,1156.4,176.385,156.732,1136.79,-44.9266,319.56,1214.73,-27.7805,216.479,1208.76,173.796,503.344,890.11,239.053,471.786,705.531,207.089,477.294,534.822,232.992,427.209,271.734,180.123,372.941,215.171,384.724,436.783,231.457,105.661,118.311,849.496,66.3879,154.524,661.753,-2.44922,158.398,458.113,-59.6038,207.35,252.196,-137.425,244.511,219.407,75.8414,221.922,196.795
270,0,154.752,427.475,1155.98,175.295,157.119,1136.31,-45.479,320.708,1214.15,-28.7346,217.687,1208.2,172.374,503.529,889.029,237.067,471.555,704.34,206.927,476.814,532.947,237.023,426.312,270.446,184.735,371.908,214.159,389.417,436.085,230.401,103.028,118.756,849.144,62.5369,154.705,661.571,-7.47653,158.312,458.346,-65.8196,207.164,252.696,-143.804,244.164,220.35,69.2289,221.694,196.534
271,0,154.778,428.048,1155.47,174.309,157.538,1135.84,-45.9431,321.908,1213.48,-29.6044,218.94,1207.57,171.068,503.654,887.853,235.118,471.348,703.042,206.324,476.332,531.14,239.537,425.339,269.297,187.444,370.882,213.602,392.336,435.303,228.94,100.511,119.194,848.771,58.8416,154.911,661.371,-12.409,158.221,458.589,-72.0251,206.933,253.244,-150.194,243.765,221.355,62.5904,221.442,196.272
272,0,154.902,428.658,1154.9,173.434,157.995,1135.36,-46.3161,323.153,1212.75,-30.3811,220.23,1206.9,169.908,503.729,886.61,233.211,471.167,701.656,205.295,475.856,529.399,240.585,424.307,268.234,188.298,369.897,213.407,393.563,434.465,227.107,98.1126,119.628,848.38,55.3196,155.149,661.151,-17.2357,158.131,458.844,-78.2186,206.659,253.847,-156.595,243.318,222.432,55.9272,221.167,196.014
273,0,155.125,429.309,1154.27,172.677,158.5,1134.9,-46.5962,324.438,1211.97,-31.057,221.55,1206.17,168.914,503.765,885.327,231.343,471.019,700.201,203.861,475.398,527.721,240.245,423.235,267.211,187.391,368.988,213.485,393.218,433.599,224.957,95.8351,120.062,847.974,51.9913,155.428,660.909,-21.9437,158.051,459.114,-84.3969,206.347,254.514,-163.004,242.831,223.591,49.2412,220.869,195.761
274,0,155.444,430.002,1153.61,172.041,159.057,1134.45,-46.7826,325.755,1211.15,-31.6257,222.892,1205.42,168.101,503.775,884.031,229.507,470.907,698.694,202.045,474.968,526.099,238.622,422.145,266.193,184.861,368.182,213.745,391.448,432.733,222.562,93.6871,120.504,847.556,48.8798,155.754,660.643,-26.5179,157.986,459.4,-90.5559,206.002,255.255,-169.419,242.31,224.845,42.5362,220.552,195.519
275,0,155.856,430.74,1152.92,171.528,159.676,1134.03,-46.8758,327.1,1210.3,-32.0823,224.248,1204.64,167.474,503.773,882.745,227.688,470.839,697.15,199.873,474.576,524.53,235.839,421.057,265.153,180.882,367.495,214.101,388.422,431.892,220.007,91.6816,120.965,847.126,46.0106,156.135,660.35,-30.941,157.945,459.705,-96.6892,205.633,256.077,-175.836,241.765,226.209,35.8176,220.22,195.29
276,0,156.357,431.524,1152.23,171.14,160.361,1133.63,-46.8773,328.466,1209.44,-32.4241,225.614,1203.85,167.029,503.773,881.49,225.872,470.817,695.586,197.371,474.232,523.01,232.032,419.994,264.073,175.663,366.938,214.474,384.325,431.099,217.38,89.8371,121.458,846.684,43.412,156.577,660.027,-35.1932,157.935,460.033,-102.788,205.248,256.99,-182.248,241.205,227.697,29.0927,219.879,195.077
277,0,156.941,432.357,1151.54,170.875,161.12,1133.27,-46.7898,329.847,1208.58,-32.6499,226.984,1203.05,166.753,503.791,880.284,224.037,470.85,694.015,194.571,473.948,521.535,227.348,418.974,262.945,169.433,366.508,214.793,379.346,430.373,214.768,88.1775,121.998,846.23,41.1139,157.086,659.669,-39.2527,157.962,460.385,-108.841,204.858,258.004,-188.644,240.642,229.328,22.3708,219.535,194.882
278,0,157.603,433.242,1150.88,170.73,161.958,1132.95,-46.6174,331.241,1207.74,-32.7612,228.354,1202.25,166.624,503.841,879.142,222.163,470.941,692.45,191.499,473.733,520.102,221.938,418.018,261.77,162.432,366.191,214.996,373.672,429.728,212.249,86.7318,122.601,845.762,39.1479,157.664,659.274,-43.0954,158.033,460.765,-114.834,204.471,259.128,-195.013,240.086,231.121,15.6626,219.197,194.707
279,0,158.333,434.18,1150.24,170.699,162.879,1132.67,-46.3652,332.642,1206.92,-32.7613,229.721,1201.47,166.612,503.937,878.076,220.227,471.097,690.903,188.187,473.596,518.71,215.948,417.14,260.555,154.902,365.965,215.035,367.478,429.171,209.89,85.5326,123.282,845.279,37.5461,158.315,658.838,-46.6956,158.15,461.176,-120.748,204.099,260.374,-201.336,239.546,233.097,8.98005,218.874,194.551
280,0,159.122,435.173,1149.65,170.775,163.885,1132.44,-46.0396,334.049,1206.14,-32.6561,231.083,1200.71,166.68,504.091,877.093,218.206,471.322,689.385,184.661,473.542,517.358,209.518,416.353,259.311,147.07,365.802,214.872,360.922,428.706,207.742,84.6148,124.055,844.777,36.3409,159.036,658.359,-50.0262,158.317,461.622,-126.562,203.749,261.751,-207.592,239.031,235.279,2.33533,218.573,194.412
281,0,159.961,436.224,1149.11,170.949,164.98,1132.26,-45.6481,335.46,1205.41,-32.4537,232.439,1199.98,166.787,504.315,876.198,216.079,471.62,687.905,180.946,473.577,516.048,202.776,415.665,258.055,139.143,365.67,214.487,354.138,428.329,205.841,84.0139,124.932,844.257,35.5635,159.826,657.833,-53.0591,158.535,462.107,-132.252,203.43,263.271,-213.752,238.549,237.692,-4.25963,218.306,194.287
282,0,160.836,437.333,1148.62,171.208,166.163,1132.14,-45.1994,336.876,1204.74,-32.1642,233.791,1199.28,166.887,504.618,875.392,213.824,471.996,686.472,177.066,473.705,514.78,195.834,415.082,256.804,131.295,365.536,213.873,347.239,428.037,204.204,83.7638,125.923,843.717,35.2434,160.678,657.259,-55.766,158.801,462.637,-137.787,203.147,264.948,-219.785,238.105,240.364,-10.7943,218.08,194.171
283,0,161.735,438.5,1148.2,171.541,167.434,1132.07,-44.7031,338.298,1204.13,-31.8,235.141,1198.62,166.932,505.006,874.674,211.424,472.453,685.093,173.04,473.926,513.557,188.788,414.604,255.576,123.659,365.373,213.037,340.307,427.818,202.833,83.8946,127.03,843.159,35.4075,161.584,656.638,-58.1185,159.113,463.217,-143.137,202.904,266.794,-225.652,237.704,243.32,-17.2605,217.904,194.058
284,0,162.643,439.725,1147.83,171.932,168.789,1132.06,-44.17,339.726,1203.59,-31.375,236.492,1198.01,166.875,505.487,874.04,208.862,472.992,683.774,168.884,474.24,512.381,181.715,414.228,254.388,116.327,365.16,212.004,333.403,427.663,201.717,84.4311,128.252,842.586,36.0793,162.533,655.97,-60.0891,159.464,463.855,-148.268,202.705,268.823,-231.308,237.347,246.59,-23.6528,217.784,193.941
285,0,163.545,441.008,1147.52,172.365,170.226,1132.11,-43.6114,341.165,1203.12,-30.9051,237.846,1197.45,166.67,506.063,873.483,206.123,473.614,682.52,164.611,474.642,511.255,174.672,413.95,253.256,109.347,364.883,210.806,326.562,427.559,200.833,85.3909,129.584,842.002,37.2779,163.514,655.258,-61.6516,159.85,464.557,-153.142,202.549,271.051,-236.705,237.038,250.201,-29.9697,217.726,193.815
286,0,164.427,442.346,1147.28,172.824,171.739,1132.2,-43.0399,342.617,1202.73,-30.4071,239.209,1196.93,166.273,506.736,872.997,203.199,474.321,681.334,160.23,475.129,510.182,167.703,413.761,252.192,102.729,364.541,209.488,319.804,427.494,200.153,86.7832,131.013,841.414,39.0176,164.51,654.507,-62.7817,160.259,465.334,-157.722,202.435,273.493,-241.788,236.777,254.18,-36.2128,217.734,193.676
287,0,165.27,443.737,1147.08,173.29,173.321,1132.35,-42.4681,344.086,1202.42,-29.899,240.586,1196.47,165.646,507.506,872.571,200.08,475.11,680.216,155.75,475.693,509.162,160.832,413.651,251.203,96.4441,364.139,208.101,313.131,427.456,199.644,88.6082,132.522,840.832,41.3074,165.507,653.724,-63.4578,160.684,466.196,-161.97,202.36,276.166,-246.501,236.565,258.555,-42.3872,217.808,193.523
288,0,166.059,445.176,1146.94,173.746,174.964,1132.55,-41.9096,345.575,1202.19,-29.3993,241.981,1196.06,164.756,508.371,872.197,196.763,475.978,679.168,151.176,476.327,508.198,154.072,413.609,250.296,90.4419,363.69,206.696,306.537,427.435,199.269,90.8561,134.089,840.267,44.1502,166.489,652.916,-63.6614,161.113,467.151,-165.845,202.32,279.084,-250.785,236.403,263.347,-48.5002,217.95,193.358
289,0,166.776,446.66,1146.83,174.173,176.658,1132.79,-41.3778,347.088,1202.03,-28.9268,243.398,1195.7,163.578,509.328,871.863,193.247,476.923,678.188,146.511,477.021,507.289,147.427,413.625,249.472,84.6527,363.214,205.324,300.009,427.423,198.996,93.5082,135.69,839.729,47.543,167.438,652.095,-63.3776,161.536,468.213,-169.311,202.309,282.264,-254.582,236.293,268.576,-54.5593,218.154,193.19
290,0,167.406,448.182,1146.76,174.553,178.394,1133.07,-40.8864,348.628,1201.94,-28.5,244.843,1195.38,162.091,510.373,871.559,189.535,477.94,677.272,141.759,477.766,506.436,140.891,413.687,248.729,78.9996,362.732,204.029,293.53,427.412,198.792,96.5367,137.296,839.234,51.4768,168.34,651.272,-62.5958,161.942,469.392,-172.333,202.324,285.719,-257.835,236.239,274.256,-60.5704,218.416,193.031
291,0,167.931,449.736,1146.71,174.868,180.16,1133.39,-40.4491,350.197,1201.91,-28.1369,246.317,1195.11,160.286,511.498,871.276,185.631,479.021,676.418,136.923,478.551,505.638,134.453,413.785,248.063,73.4064,362.265,202.849,287.085,427.399,198.632,99.9062,138.878,838.793,55.9364,169.178,650.463,-61.3097,162.323,470.699,-174.877,202.357,289.459,-260.493,236.245,280.392,-66.5348,218.725,192.903
292,0,168.336,451.314,1146.67,175.101,181.944,1133.73,-40.0789,351.795,1201.94,-27.8548,247.824,1194.88,158.157,512.698,871.003,181.546,480.159,675.62,132.007,479.366,504.891,128.099,413.91,247.467,67.8045,361.835,201.812,280.659,427.381,198.492,103.575,140.407,838.422,60.9004,169.941,649.683,-59.5178,162.669,472.145,-176.916,202.405,293.492,-262.508,236.318,286.982,-72.4462,219.071,192.832
293,0,168.607,452.909,1146.64,175.238,183.734,1134.08,-39.7883,353.422,1202.01,-27.6695,249.366,1194.68,155.709,513.964,870.731,177.29,481.346,674.874,127.015,480.2,504.194,121.816,414.053,246.932,62.1381,361.455,200.933,274.243,427.357,198.357,107.495,141.855,838.131,66.3423,170.618,648.95,-57.2235,162.974,473.74,-178.423,202.464,297.819,-263.845,236.464,294.011,-78.2871,219.439,192.853
294,0,168.73,454.511,1146.6,175.263,185.519,1134.45,-39.5891,355.078,1202.13,-27.5951,250.942,1194.51,152.956,515.285,870.454,172.878,482.572,674.172,121.953,481.045,503.543,115.589,414.208,246.45,56.367,361.138,200.218,267.83,427.326,198.213,111.615,143.198,837.935,72.2299,171.199,648.283,-54.4351,163.232,475.491,-179.382,202.529,302.435,-264.477,236.69,301.455,-84.026,219.812,193.004
295,0,168.694,456.113,1146.55,175.164,187.284,1134.83,-39.4919,356.759,1202.27,-27.6443,252.551,1194.36,149.916,516.653,870.166,168.326,483.827,673.51,116.826,481.89,502.934,109.404,414.369,246.011,50.4676,360.887,199.664,261.416,427.29,198.053,115.884,144.412,837.841,78.5267,171.681,647.701,-51.1658,163.438,477.402,-179.777,202.6,307.329,-264.39,237.003,309.271,-89.6144,220.17,193.327
296,0,168.489,457.705,1146.48,174.931,189.019,1135.21,-39.5058,358.461,1202.43,-27.8274,254.193,1194.22,146.615,518.055,869.86,163.651,485.099,672.881,111.641,482.728,502.363,103.253,414.53,245.606,44.4322,360.704,199.258,255.004,427.251,197.874,120.245,145.481,837.858,85.1919,172.059,647.223,-47.4333,163.593,479.476,-179.6,202.674,312.479,-263.581,237.407,317.405,-94.9853,220.493,193.865
297,0,168.105,459.276,1146.39,174.555,190.712,1135.58,-39.6389,360.181,1202.6,-28.1525,255.863,1194.1,143.086,519.478,869.534,158.872,486.377,672.279,106.406,483.548,501.826,97.1238,414.687,245.228,38.2667,360.583,198.981,248.594,427.21,197.675,124.647,146.391,837.993,92.1812,172.335,646.872,-43.2592,163.696,481.711,-178.847,202.75,317.854,-262.062,237.907,325.783,-100.052,220.759,194.66
298,0,167.538,460.82,1146.26,174.029,192.352,1135.95,-39.8972,361.911,1202.77,-28.6254,257.557,1193.99,139.365,520.91,869.186,154.007,487.647,671.7,101.127,484.345,501.318,91.0112,414.838,244.871,31.9878,360.514,198.811,242.193,427.168,197.457,129.035,147.137,838.248,99.4477,172.512,646.665,-38.669,163.749,484.1,-177.521,202.828,323.413,-259.858,238.501,334.32,-104.708,220.947,195.749
299,0,166.783,462.326,1146.11,173.349,193.929,1136.3,-40.2851,363.646,1202.93,-29.2497,259.269,1193.88,135.493,522.337,868.815,149.075,488.899,671.139,95.8114,485.112,500.835,84.9093,414.978,244.528,25.6193,360.486,198.724,235.805,427.126,197.224,133.362,147.716,838.624,106.943,172.594,646.622,-33.6907,163.755,486.632,-175.627,202.909,329.104,-257.003,239.187,342.911,-108.832,221.037,197.16
300,0,165.838,463.786,1145.92,172.513,195.435,1136.63,-40.8052,365.378,1203.08,-30.0263,260.994,1193.77,131.513,523.744,868.421,144.093,490.12,670.593,90.4652,485.843,500.375,78.8137,415.104,244.198,19.1888,360.486,198.695,229.434,427.085,196.979,137.579,148.132,839.122,114.615,172.589,646.76,-28.3546,163.721,489.291,-173.172,202.991,334.864,-253.543,239.954,351.44,-112.284,221.014,198.911
301,0,164.705,465.193,1145.71,171.521,196.861,1136.95,-41.458,367.101,1203.2,-30.9541,262.724,1193.66,127.469,525.116,868.007,139.075,491.298,670.059,85.0935,486.532,499.934,72.7208,415.215,243.878,12.7247,360.5,198.701,223.085,427.043,196.728,141.644,148.393,839.738,122.415,172.506,647.095,-22.6921,163.65,492.055,-170.168,203.076,340.619,-249.529,240.791,359.777,-114.92,220.864,201.003
302,0,163.385,466.54,1145.46,170.375,198.202,1137.26,-42.2421,368.806,1203.3,-32.0297,264.453,1193.54,123.401,526.44,867.574,134.036,492.423,669.535,79.6999,487.176,499.51,66.6272,415.309,243.57,6.2532,360.516,198.722,216.76,427,196.475,145.519,148.513,840.466,130.29,172.355,647.641,-16.735,163.551,494.897,-166.626,203.163,346.289,-245.016,241.68,367.787,-116.587,220.583,203.427
303,0,161.884,467.822,1145.19,169.079,199.454,1137.55,-43.1544,370.486,1203.38,-33.2475,266.173,1193.42,119.352,527.701,867.126,128.986,493.485,669.02,74.2864,487.77,499.102,60.5296,415.383,243.273,-0.203571,360.523,198.743,210.458,426.955,196.224,149.17,148.507,841.303,138.191,172.147,648.408,-10.5143,163.429,497.786,-162.556,203.25,351.784,-240.058,242.601,375.326,-117.141,220.169,206.151
304,0,160.209,469.033,1144.9,167.639,200.611,1137.82,-44.1898,372.137,1203.42,-34.6004,267.876,1193.3,115.355,528.887,866.666,123.932,494.475,668.515,68.8536,488.313,498.709,54.4247,415.435,242.992,-6.62863,360.514,198.751,204.178,426.904,195.979,152.57,148.396,842.24,146.068,171.893,649.403,-4.05999,163.291,500.686,-157.966,203.336,357.01,-234.707,243.531,382.251,-116.442,219.63,209.133
305,0,158.369,470.17,1144.59,166.063,201.674,1138.09,-45.3416,373.75,1203.44,-36.0795,269.555,1193.18,111.443,529.985,866.198,118.881,495.385,668.019,63.4003,488.801,498.331,48.3089,415.466,242.728,-13.0108,360.481,198.737,197.918,426.845,195.744,155.698,148.198,843.27,153.874,171.604,650.631,2.60008,163.144,503.555,-152.864,203.419,361.869,-229.006,244.443,388.421,-114.371,218.981,212.312
306,0,156.375,471.23,1144.28,164.361,202.64,1138.35,-46.6015,375.322,1203.44,-37.6747,271.203,1193.07,107.639,530.986,865.724,113.833,496.21,667.535,57.9241,489.233,497.969,42.1789,415.475,242.484,-19.3447,360.424,198.696,191.672,426.777,195.52,158.54,147.935,844.388,161.562,171.29,652.091,9.44065,162.991,506.351,-147.252,203.495,366.266,-222.988,245.313,393.704,-110.828,218.243,215.617
