Trajectories
100
,,Subj:LASI,,,Subj:RASI,,,Subj:LPSI,,,Subj:RPSI,,,Subj:LTHI,,,Subj:LKNE,,,Subj:LTIB,,,Subj:LANK,,,Subj:LHEE,,,Subj:LTOE,,,Subj:RTHI,,,Subj:RKNE,,,Subj:RTIB,,,Subj:RANK,,,Subj:RHEE,,,Subj:RTOE,,,
Frame,Sub Frame,X,Y,Z,X,Y,Z,X,Y,Z,X,Y,Z,X,Y,Z,X,Y,Z,X,Y,Z,X,Y,Z,X,Y,Z,X,Y,Z,X,Y,Z,X,Y,Z,X,Y,Z,X,Y,Z,X,Y,Z,X,Y,Z
,,mm,mm,mm,mm,mm,mm,mm,mm,mm,mm,mm,mm,mm,mm,mm,mm,mm,mm,mm,mm,mm,mm,mm,mm,mm,mm,mm,mm,mm,mm,mm,mm,mm,mm,mm,mm,mm,mm,mm,mm,mm,mm,mm,mm,mm,mm,mm,mm
1,0,43.7115,463.873,1139.03,41.5513,189.461,1130.36,-166.79,366.892,1199.47,-159.367,264.131,1188.5,-13.7964,519.805,857.608,-10.0097,482.382,658.934,-81.0985,478.94,495.751,-138.398,405.084,249.19,-209.191,358.239,212.116,6.17878,391.651,189.909,52.028,127.041,846.798,103.573,148.758,664.465,-44.0941,142.054,522.756,-202.139,181.681,380.605,-281.623,223.572,397.652,-142.291,192.147,238.437
2,0,41.1953,464.153,1140.3,39.282,189.925,1133.79,-169.216,366.933,1201.99,-161.645,263.959,1191.67,-18.9823,519.097,858.383,-17.7858,481.746,659.894,-89.6421,478.387,497.039,-147.626,404.89,250.671,-218.083,358.151,213.828,-3.27496,391.338,189.837,54.6354,126.65,850.947,108.489,149.476,669.776,-35.4222,142.026,520.955,-189.039,181.172,372.701,-269.592,223.253,385.117,-120.77,191.204,237.271
3,0,38.7069,464.349,1141.48,37.146,190.314,1137.04,-171.539,366.884,1204.4,-163.815,263.725,1194.7,-24.1873,518.321,859.167,-25.4935,481.092,660.879,-98.117,477.817,498.36,-156.82,404.667,252.184,-227.041,358.048,215.67,-12.7783,391.021,189.748,57.0391,126.323,855.038,112.629,150.171,674.695,-26.8643,142.025,519.127,-175.313,180.71,364.857,-256.681,222.915,372.659,-99.1157,190.296,236.09
4,0,36.2468,464.461,1142.58,35.1433,190.629,1140.13,-173.759,366.745,1206.71,-165.877,263.429,1197.58,-29.4098,517.478,859.958,-33.1324,480.418,661.89,-106.523,477.233,499.714,-165.98,404.414,253.727,-236.063,357.929,217.643,-22.3313,390.7,189.639,59.2374,126.061,859.069,115.993,150.84,679.221,-18.421,142.053,517.273,-160.964,180.294,357.074,-242.893,222.558,360.284,-77.3313,189.427,234.896
5,0,33.8155,464.49,1143.58,33.2741,190.869,1143.04,-175.877,366.517,1208.92,-167.831,263.071,1200.31,-34.6451,516.57,860.758,-40.7007,479.727,662.926,-114.86,476.634,501.099,-175.105,404.132,255.302,-245.146,357.793,219.745,-31.9341,390.374,189.513,61.2259,125.863,863.032,118.587,151.484,683.353,-10.0933,142.108,515.395,-145.998,179.927,349.366,-228.238,222.184,348.008,-55.4229,188.607,233.695
6,0,31.4149,464.437,1144.49,31.5392,191.036,1145.78,-177.891,366.198,1211.02,-169.676,262.65,1202.89,-39.8848,515.599,861.564,-48.1952,479.018,663.986,-123.127,476.022,502.516,-184.195,403.824,256.908,-254.284,357.642,221.971,-41.5872,390.045,189.37,62.9959,125.729,866.911,120.419,152.102,687.092,-1.88405,142.191,513.499,-130.432,179.611,341.752,-212.735,221.793,335.864,-33.4048,187.857,232.497
7,0,29.0479,464.304,1145.32,29.9394,191.131,1148.34,-179.802,365.788,1213.02,-171.41,262.165,1205.32,-45.1152,514.573,862.375,-55.6105,478.293,665.065,-131.322,475.399,503.963,-193.25,403.491,258.547,-263.468,357.475,224.314,-51.2911,389.713,189.211,64.5331,125.653,870.683,121.506,152.693,690.439,6.20151,142.303,511.592,-114.296,179.349,334.269,-196.42,221.387,323.903,-11.303,187.208,231.315
8,0,26.7187,464.094,1146.05,28.4763,191.155,1150.73,-181.607,365.286,1214.9,-173.031,261.614,1207.59,-50.3182,513.499,863.189,-62.9388,477.555,666.162,-139.441,474.768,505.438,-202.272,403.139,260.219,-272.683,357.292,226.767,-61.0463,389.38,189.037,65.818,125.628,874.31,121.873,153.254,693.394,14.1548,142.443,509.686,-97.6373,179.148,326.963,-179.351,220.974,312.196,10.8412,186.701,230.171
9,0,24.4337,463.812,1146.7,27.152,191.111,1152.93,-183.304,364.692,1216.66,-174.534,260.995,1209.7,-55.4713,512.388,864.001,-70.1697,476.806,667.269,-147.482,474.132,506.939,-211.26,402.773,261.926,-281.917,357.094,229.317,-70.8531,389.047,188.852,66.8256,125.642,877.747,121.559,153.783,695.96,21.9627,142.612,507.795,-80.5255,179.018,319.895,-161.61,220.562,300.834,32.9672,186.389,229.086
10,0,22.2007,463.464,1147.26,25.9691,191.001,1154.95,-184.891,364.004,1218.3,-175.916,260.307,1211.64,-60.5495,511.252,864.807,-77.2906,476.049,668.38,-155.439,473.497,508.461,-220.218,402.4,263.67,-291.152,356.886,231.953,-80.712,388.715,188.657,67.5274,125.675,880.939,120.612,154.278,698.142,29.6066,142.813,505.933,-63.0548,178.969,313.134,-143.308,220.165,289.921,54.9923,186.325,228.084
11,0,20.0299,463.055,1147.74,24.9307,190.831,1156.77,-186.364,363.222,1219.8,-177.172,259.546,1213.41,-65.5262,510.104,865.597,-84.2868,475.287,669.484,-163.305,472.869,510,-229.147,402.029,265.451,-300.374,356.671,234.662,-90.6229,388.385,188.458,67.8939,125.7,883.824,119.098,154.739,699.948,37.0617,143.047,504.117,-45.3476,179.013,306.751,-124.589,219.803,279.568,76.8099,186.564,227.183
12,0,17.9328,462.593,1148.13,24.0406,190.602,1158.4,-187.72,362.345,1221.16,-178.294,258.71,1215,-70.3747,508.957,866.365,-91.1416,474.523,670.572,-171.073,472.255,511.549,-238.052,401.668,267.272,-309.57,356.457,237.431,-100.585,388.06,188.256,67.8976,125.687,886.341,117.093,155.165,701.39,44.2963,143.316,502.36,-27.5547,179.165,300.816,-105.629,219.498,269.885,98.2883,187.152,226.397
13,0,15.9229,462.085,1148.43,23.3025,190.321,1159.81,-188.954,361.374,1222.36,-179.278,257.796,1216.39,-75.0697,507.825,867.098,-97.8373,473.761,671.63,-178.732,471.66,513.101,-246.938,401.329,269.131,-318.73,356.255,240.248,-110.6,387.739,188.057,67.5169,125.602,888.429,114.688,155.557,702.481,51.2711,143.623,500.675,-9.85509,179.439,295.39,-86.6376,219.28,260.972,119.272,188.123,225.725
14,0,14.0147,461.54,1148.64,22.7206,189.991,1161.01,-190.061,360.31,1223.39,-180.117,256.804,1217.58,-79.5873,506.718,867.783,-104.355,473.004,672.642,-186.273,471.092,514.646,-255.81,401.024,271.029,-327.849,356.076,243.102,-120.665,387.422,187.865,66.7407,125.411,890.037,111.984,155.918,703.242,57.9402,143.973,499.069,7.54675,179.848,290.518,-67.8527,219.177,252.911,139.582,189.493,225.155
15,0,12.2239,460.964,1148.76,22.2988,189.617,1161.99,-191.037,359.154,1224.24,-180.805,255.731,1218.56,-83.9059,505.647,868.406,-110.676,472.253,673.595,-193.681,470.558,516.174,-264.674,400.762,272.962,-336.927,355.937,245.984,-130.781,387.11,187.682,65.5732,125.086,891.126,109.088,156.253,703.692,64.2508,144.37,497.543,24.4248,180.403,286.226,-49.5373,219.221,245.757,159.022,191.258,224.656
16,0,10.5666,460.364,1148.79,22.0405,189.201,1162.74,-191.875,357.912,1224.88,-181.336,254.58,1219.31,-88.0055,504.617,868.951,-116.778,471.511,674.469,-200.943,470.063,517.676,-273.534,400.558,274.928,-345.969,355.856,248.888,-140.949,386.802,187.513,64.0382,124.612,891.674,106.111,156.57,703.857,70.1446,144.817,496.093,40.5377,181.112,282.515,-31.9724,219.438,239.538,177.381,193.389,224.185
17,0,9.05877,459.745,1148.71,21.9485,188.748,1163.26,-192.573,356.588,1225.32,-181.707,253.352,1219.84,-91.8673,503.634,869.399,-122.643,470.779,675.248,-208.042,469.614,519.137,-282.394,400.42,276.922,-354.981,355.851,251.807,-151.169,386.499,187.359,62.1828,123.984,891.681,103.162,156.875,703.76,75.56,145.318,494.707,55.6365,181.98,279.364,-15.4483,219.853,234.246,194.442,195.836,223.685
18,0,7.71576,459.111,1148.52,22.0248,188.26,1163.53,-193.124,355.189,1225.54,-181.915,252.049,1220.12,-95.4731,502.698,869.732,-128.246,470.059,675.913,-214.96,469.214,520.546,-291.254,400.36,278.937,-363.974,355.944,254.739,-161.443,386.201,187.221,60.0797,123.22,891.168,100.345,157.177,703.428,80.4333,145.877,493.368,69.4736,183.003,276.728,-0.254126,220.482,229.842,209.987,198.531,223.09
19,0,6.55179,458.464,1148.23,22.2696,187.738,1163.58,-193.526,353.724,1225.53,-181.958,250.678,1220.17,-98.8047,501.81,869.931,-133.564,469.354,676.446,-221.675,468.866,521.89,-300.11,400.387,280.967,-372.959,356.154,257.684,-171.771,385.91,187.098,57.8275,122.353,890.18,97.7493,157.485,702.884,84.7023,146.495,492.053,81.8135,184.176,274.54,13.3337,221.333,226.257,223.807,201.386,222.337
20,0,5.57921,457.801,1147.81,22.6818,187.182,1163.38,-193.777,352.203,1225.28,-181.839,249.246,1219.97,-101.843,500.966,869.977,-138.57,468.666,676.828,-228.164,468.572,523.156,-308.954,400.507,283.004,-381.944,356.498,260.644,-182.154,385.628,186.987,55.5479,121.436,888.783,95.4501,157.805,702.15,88.3084,147.173,490.736,92.4429,185.487,272.717,25.0644,222.404,223.398,235.713,204.305,221.366
21,0,4.80795,457.122,1147.26,23.2583,186.591,1162.96,-193.875,350.637,1224.79,-181.561,247.76,1219.53,-104.57,500.162,869.854,-143.236,467.998,677.04,-234.399,468.332,524.332,-317.771,400.724,285.041,-390.932,356.991,263.623,-192.591,385.359,186.884,53.3803,120.536,887.06,93.5006,158.142,701.243,91.2001,147.908,489.388,101.182,186.916,271.168,34.7248,223.68,221.152,245.543,207.189,220.134
22,0,4.24496,456.42,1146.58,23.9936,185.963,1162.31,-193.822,349.04,1224.07,-181.13,246.232,1218.86,-106.965,499.392,869.545,-147.528,467.356,677.066,-240.349,468.147,525.407,-326.537,401.041,287.072,-399.921,357.641,266.631,-203.078,385.107,186.783,51.4723,119.726,885.107,91.9305,158.497,700.178,93.336,148.697,487.982,107.893,188.44,269.798,42.1515,225.138,219.399,253.175,209.943,218.617
23,0,3.89371,455.689,1145.77,24.8798,185.295,1161.45,-193.621,347.426,1223.11,-180.555,244.671,1217.97,-109.009,498.653,869.037,-151.409,466.747,676.889,-245.978,468.015,526.37,-335.222,401.453,289.093,-408.895,358.449,269.68,-213.607,384.874,186.678,49.9675,119.077,883.024,90.7443,158.866,698.965,94.687,149.532,486.492,112.49,190.031,268.518,47.2406,226.743,218.016,258.534,212.482,216.819
24,0,3.75376,454.92,1144.82,25.9064,184.584,1160.4,-193.277,345.807,1221.93,-179.847,243.09,1216.87,-110.682,497.937,868.322,-154.838,466.181,676.495,-251.248,467.934,527.214,-343.783,401.955,291.103,-417.829,359.408,272.787,-224.169,384.665,186.56,48.9916,118.648,880.906,89.9217,159.242,697.61,95.2389,150.404,484.897,114.943,191.658,267.246,49.9545,228.451,216.888,261.597,214.738,214.769
25,0,3.82042,454.104,1143.73,27.0599,183.826,1159.17,-192.798,344.199,1220.54,-179.02,241.5,1215.58,-111.966,497.241,867.392,-157.769,465.668,675.871,-256.113,467.903,527.933,-352.17,402.536,293.105,-426.679,360.499,275.977,-234.748,384.478,186.424,48.6368,118.482,878.838,89.4191,159.612,696.117,94.9933,151.299,483.183,115.284,193.287,265.92,50.326,230.211,215.911,262.401,216.667,212.521
26,0,4.08459,453.229,1142.5,28.3244,183.016,1157.79,-192.193,342.615,1218.95,-178.091,239.915,1214.13,-112.845,496.561,866.247,-160.154,465.221,675.006,-260.524,467.919,528.524,-360.324,403.18,295.108,-435.387,361.697,279.28,-245.327,384.311,186.261,48.9478,118.591,876.888,89.1731,159.96,694.49,93.9682,152.203,481.344,113.599,194.883,264.493,48.457,231.971,215.001,261.043,218.247,210.15
27,0,4.53273,452.287,1141.15,29.6808,182.151,1156.28,-191.477,341.069,1217.19,-177.079,238.346,1212.54,-113.304,495.895,864.89,-161.942,464.854,673.895,-264.43,467.981,528.987,-368.175,403.87,297.124,-443.876,362.963,282.732,-255.886,384.159,186.069,49.9118,118.957,875.097,89.1054,160.268,692.732,92.1973,153.097,479.381,110.033,196.412,262.941,44.5136,233.676,214.095,257.676,219.477,207.74
28,0,5.14695,451.268,1139.69,31.1076,181.227,1154.67,-190.665,339.571,1215.29,-176.003,236.803,1210.84,-113.331,495.243,863.327,-163.082,464.583,672.534,-267.776,468.09,529.325,-375.647,404.586,299.174,-452.052,364.253,286.376,-266.402,384.012,185.846,51.4525,119.53,873.479,89.1279,160.515,690.848,89.7282,153.962,477.305,104.776,197.843,261.262,38.7166,235.274,213.155,252.501,220.381,205.382
29,0,5.90535,450.164,1138.12,32.5812,180.242,1152.98,-189.775,338.132,1213.27,-174.886,235.296,1209.06,-112.918,494.605,861.572,-163.526,464.422,670.924,-270.504,468.246,529.547,-382.661,405.306,301.284,-459.808,365.516,290.262,-276.852,383.857,185.595,53.4323,120.232,872.022,89.1485,160.681,688.846,86.6204,154.778,475.135,98.0535,199.147,259.468,31.3286,236.72,212.162,245.761,220.994,203.155
30,0,6.78246,448.972,1136.46,34.0755,179.193,1151.24,-188.826,336.759,1211.16,-173.752,233.833,1207.25,-112.058,493.986,859.642,-163.226,464.384,669.073,-272.559,468.451,529.662,-389.135,406.01,303.487,-467.025,366.699,294.442,-287.212,383.679,185.326,55.6607,120.964,870.69,89.0771,160.747,686.741,82.9408,155.525,472.896,90.1158,200.299,257.591,22.6385,237.974,211.121,237.722,221.366,201.129
31,0,7.74984,447.69,1134.73,35.5635,178.082,1149.49,-187.842,335.458,1209,-172.623,232.422,1205.42,-110.749,493.388,857.558,-162.146,464.48,666.994,-273.889,468.708,529.688,-394.987,406.677,305.822,-473.577,367.751,298.973,-297.455,383.462,185.058,57.9112,121.616,869.428,88.8299,160.697,684.552,78.761,156.181,470.619,81.2218,201.282,255.67,12.9444,239.011,210.048,228.662,221.548,199.351
32,0,8.77686,446.319,1132.97,37.0166,176.91,1147.75,-186.845,334.232,1206.82,-171.525,231.065,1203.63,-108.991,492.817,855.348,-160.254,464.718,664.707,-274.445,469.022,529.644,-400.142,407.292,308.331,-479.34,368.626,303.907,-307.552,383.19,184.819,59.9428,122.081,868.173,88.3337,160.52,682.302,74.1524,156.73,468.336,71.6268,202.083,253.752,2.53757,239.815,208.973,218.852,221.591,197.848
33,0,9.83157,444.866,1131.18,38.4062,175.678,1146.04,-185.861,333.082,1204.65,-170.481,229.767,1201.89,-106.788,492.277,853.04,-157.531,465.098,662.238,-274.186,469.397,529.554,-404.531,407.845,311.06,-484.194,369.287,309.295,-317.467,382.85,184.649,61.5253,122.264,866.864,87.5272,160.21,680.021,69.1829,157.154,466.083,61.5693,202.695,251.885,-8.31244,240.381,207.93,208.548,221.539,196.624
34,0,10.8816,443.34,1129.4,39.704,174.393,1144.4,-184.915,332.007,1202.53,-169.514,228.529,1200.25,-104.15,491.773,850.671,-153.974,465.619,659.623,-273.079,469.837,529.445,-408.097,408.328,314.056,-488.036,369.71,315.176,-327.154,382.436,184.6,62.4637,122.096,865.452,86.3625,159.764,677.739,63.913,157.44,463.894,51.2614,203.12,250.112,-19.3695,240.715,206.955,197.972,221.428,195.663
35,0,11.8949,441.755,1127.65,40.8824,173.059,1142.84,-184.032,331.002,1200.48,-168.647,227.35,1198.72,-101.089,491.307,848.279,-149.589,466.269,656.903,-271.105,470.347,529.346,-410.796,408.741,317.36,-490.78,369.883,321.575,-336.552,381.948,184.737,62.6189,121.536,863.905,84.8039,159.184,675.491,58.3939,157.578,461.8,40.8806,203.362,248.473,-30.4392,240.836,206.08,187.311,221.283,194.935
36,0,12.8411,440.127,1125.97,41.9155,171.684,1141.38,-183.235,330.063,1198.55,-167.9,226.23,1197.33,-97.6245,490.881,845.905,-144.4,467.033,654.127,-268.253,470.926,529.289,-412.596,409.086,321.009,-492.368,369.81,328.498,-345.579,381.394,185.134,61.9209,120.582,862.222,82.8265,158.477,673.309,52.6651,157.564,459.828,30.5662,203.435,246.995,-41.3731,240.766,205.33,176.706,221.117,194.4
37,0,13.6918,438.477,1124.38,42.7799,170.276,1140.04,-182.549,329.183,1196.74,-167.291,225.165,1196.11,-93.7806,490.493,843.593,-138.446,467.887,651.349,-264.527,471.574,529.307,-413.483,409.372,325.033,-492.771,369.505,335.931,-354.13,380.797,185.871,60.3731,119.262,860.428,80.4135,157.653,671.224,46.7545,157.396,458.001,20.4176,203.351,245.697,-52.0688,240.534,204.719,166.26,220.938,194.013
38,0,14.4217,436.826,1122.9,43.4548,168.844,1138.83,-181.993,328.353,1195.1,-166.836,224.152,1195.06,-89.5892,490.14,841.388,-131.777,468.805,648.629,-259.945,472.287,529.431,-413.455,409.607,329.445,-491.995,368.995,343.83,-362.076,380.187,187.029,58.0461,117.635,858.575,77.5541,156.721,669.262,40.6784,157.077,456.334,10.4965,203.132,244.588,-62.4676,240.173,204.256,156.03,220.742,193.73
39,0,15.0087,435.195,1121.56,43.9228,167.397,1137.77,-181.586,327.566,1193.63,-166.549,223.189,1194.2,-85.0893,489.815,839.336,-124.456,469.754,646.031,-254.537,473.054,529.691,-412.524,409.8,334.244,-490.075,368.313,352.128,-369.259,379.606,188.681,55.0627,115.777,856.734,74.2415,155.696,667.444,34.4429,156.617,454.838,0.830595,202.796,243.666,-72.5484,239.715,203.938,146.044,220.524,193.512
40,0,15.435,433.608,1120.38,44.1704,165.945,1136.84,-181.343,326.814,1192.36,-166.44,222.272,1193.54,-80.3274,489.512,837.481,-116.554,470.701,643.616,-248.342,473.861,530.111,-410.712,409.961,339.412,-487.078,367.496,360.728,-375.5,379.106,190.885,51.5759,113.779,854.986,70.471,154.59,665.785,28.046,156.028,453.517,-8.5807,202.366,242.922,-82.3206,239.188,203.753,136.299,220.276,193.324
41,0,15.6866,432.084,1119.39,44.188,164.498,1136.06,-181.277,326.088,1191.29,-166.516,221.397,1193.06,-75.3568,489.223,835.865,-108.15,471.61,641.45,-241.414,474.689,530.714,-408.05,410.096,344.911,-483.093,366.58,369.508,-380.601,378.74,193.674,47.7442,111.731,853.409,66.24,153.419,664.292,21.4797,155.328,452.372,-17.7596,201.864,242.34,-91.8162,238.621,203.687,126.771,219.991,193.141
42,0,15.7537,430.643,1118.59,43.9702,163.065,1135.42,-181.395,325.381,1190.43,-166.78,220.56,1192.77,-70.2373,488.938,834.522,-99.3222,472.448,639.59,-233.812,475.516,531.514,-404.574,410.209,350.679,-478.231,365.602,378.324,-384.361,378.563,197.054,43.7078,109.714,852.067,61.5482,152.196,662.968,14.7328,154.537,451.395,-26.7434,201.309,241.902,-101.081,238.035,203.718,117.427,219.666,192.947
43,0,15.6307,429.299,1118.01,43.5156,161.655,1134.92,-181.702,324.688,1189.8,-167.233,219.76,1192.66,-65.033,488.651,833.486,-90.153,473.184,638.093,-225.603,476.313,532.521,-400.324,410.302,356.639,-472.612,364.591,387.013,-386.58,378.624,200.994,39.5698,107.796,851.003,56.3981,150.94,661.809,7.79306,153.678,450.581,-35.5776,200.723,241.586,-110.17,237.45,203.827,108.223,219.299,192.732
44,0,15.3158,428.062,1117.64,42.8271,160.277,1134.54,-182.199,324.003,1189.39,-167.871,218.994,1192.72,-59.8102,488.357,832.78,-80.7208,473.793,637.005,-216.861,477.052,533.736,-395.339,410.374,362.691,-466.358,363.575,395.403,-387.077,378.959,205.424,35.385,106.029,850.231,50.7971,149.669,660.807,0.649506,152.777,449.917,-44.3109,200.123,241.371,-119.136,236.878,203.994,99.1161,218.894,192.492
45,0,14.8107,426.94,1117.51,41.9111,158.938,1134.29,-182.883,323.323,1189.19,-168.69,218.26,1192.94,-54.635,488.052,832.419,-71.1002,474.255,636.365,-207.66,477.702,535.155,-389.659,410.423,368.723,-459.587,362.578,403.315,-385.701,379.586,210.242,31.1584,104.444,849.736,44.7584,148.401,659.951,-6.70585,151.859,449.392,-52.9902,199.526,241.238,-128.03,236.33,204.201,90.0663,218.458,192.231
46,0,14.1204,425.934,1117.61,40.7774,157.644,1134.13,-183.748,322.647,1189.21,-169.68,217.556,1193.31,-49.5701,487.738,832.412,-61.3607,474.559,636.204,-198.078,478.236,536.766,-383.322,410.446,374.605,-452.407,361.619,410.571,-382.341,380.502,215.314,26.8516,103.054,849.478,38.3019,147.158,659.227,-14.2768,150.95,448.994,-61.6574,198.948,241.172,-136.896,235.814,204.436,81.0383,218.001,191.952
47,0,13.2524,425.041,1117.94,39.4387,156.403,1134.07,-184.784,321.975,1189.44,-170.829,216.881,1193.8,-44.6719,487.418,832.758,-51.5661,474.697,636.538,-188.194,478.629,538.553,-376.361,410.443,380.205,-444.905,360.72,417.004,-376.936,381.679,220.486,22.3974,101.859,849.397,31.4554,145.961,658.622,-22.0622,150.075,448.712,-70.3476,198.401,241.16,-145.769,235.336,204.691,72.0033,217.534,191.665
48,0,12.217,424.253,1118.5,37.9101,155.219,1134.09,-185.98,321.308,1189.86,-172.125,216.235,1194.41,-39.9875,487.097,833.451,-41.7748,474.674,637.376,-178.086,478.86,540.492,-368.808,410.412,385.382,-437.149,359.898,422.458,-369.479,383.067,225.592,17.7179,100.849,849.426,24.2539,144.833,658.123,-30.0556,149.256,448.535,-79.0876,197.898,241.194,-154.675,234.902,204.963,62.9396,217.072,191.375
49,0,11.0261,423.56,1119.28,36.2084,154.097,1134.17,-187.322,320.649,1190.48,-173.553,215.618,1195.12,-35.5527,486.785,834.478,-32.0411,474.497,638.715,-167.831,478.917,542.555,-360.69,410.356,390,-429.182,359.172,426.796,-360.015,384.595,230.465,12.7432,100.009,849.496,16.7393,143.795,657.718,-38.2456,148.513,448.455,-87.8963,197.45,241.271,-163.633,234.516,205.255,53.8313,216.624,191.092
50,0,9.69341,422.949,1120.27,34.3518,153.042,1134.3,-188.793,320.003,1191.27,-175.096,215.03,1195.92,-31.3904,486.49,835.819,-22.4157,474.18,640.541,-157.502,478.795,544.712,-352.034,410.279,393.928,-421.023,358.559,429.905,-348.64,386.18,234.951,7.42785,99.3186,849.552,8.95874,142.865,657.399,-46.6161,147.86,448.463,-96.7848,197.066,241.389,-172.651,234.186,205.575,44.6681,216.204,190.822
51,0,8.23404,422.404,1121.47,32.3588,152.057,1134.47,-190.377,319.374,1192.23,-176.737,214.472,1196.79,-27.5103,486.222,837.456,-12.9483,473.742,642.831,-147.172,478.5,546.926,-342.86,410.187,397.047,-412.67,358.072,431.692,-335.492,387.739,238.914,1.76164,98.7632,849.551,0.963147,142.059,657.157,-55.1469,147.31,448.556,-105.758,196.753,241.552,-181.736,233.916,205.934,35.4441,215.82,190.567
52,0,6.66416,421.909,1122.86,30.2484,151.144,1134.66,-192.055,318.769,1193.34,-178.46,213.945,1197.73,-23.909,485.991,839.366,-3.68829,473.204,645.552,-136.907,478.041,549.16,-333.187,410.087,399.254,-404.095,357.719,432.089,-320.738,389.192,242.248,-4.2263,98.3292,849.47,-7.19492,141.388,656.989,-63.8145,146.869,448.729,-114.814,196.516,241.765,-190.885,233.711,206.348,26.1563,215.478,190.33
53,0,5.00087,421.45,1124.41,28.0393,150.306,1134.88,-193.811,318.194,1194.59,-180.248,213.45,1198.73,-20.5719,485.805,841.525,5.31308,472.589,648.664,-126.773,477.441,551.371,-323.03,409.985,400.464,-395.253,357.501,431.054,-304.566,390.478,244.878,-10.4702,98.0074,849.309,-15.4632,140.859,656.894,-72.5933,146.537,448.982,-123.949,196.357,242.037,-200.097,233.575,206.834,16.804,215.183,190.11
54,0,3.262,421.014,1126.12,25.7495,149.546,1135.11,-195.625,317.657,1195.96,-182.085,212.991,1199.79,-17.4754,485.671,843.911,14.002,471.92,652.12,-116.827,476.724,553.518,-312.398,409.89,400.614,-386.083,357.409,428.566,-287.174,391.562,246.761,-16.8764,97.7923,849.082,-23.7913,140.473,656.871,-81.4558,146.314,449.315,-133.153,196.276,242.376,-209.365,233.509,207.411,7.388,214.933,189.904
55,0,1.46602,420.59,1127.96,23.3963,148.863,1135.34,-197.481,317.164,1197.44,-183.955,212.57,1200.89,-14.5902,485.593,846.505,22.3215,471.219,655.865,-107.121,475.919,555.552,-301.295,409.806,399.667,-376.51,357.425,424.628,-268.752,392.437,247.888,-23.3357,97.6815,848.817,-32.1326,140.223,656.923,-90.374,146.191,449.729,-142.418,196.267,242.793,-218.683,233.511,208.098,-2.09008,214.728,189.708
56,0,-0.368209,420.169,1129.91,20.9959,148.258,1135.57,-199.36,316.723,1199.01,-185.843,212.191,1202.04,-11.8843,485.573,849.287,30.2111,470.504,659.841,-97.7017,475.059,557.428,-289.718,409.739,397.609,-366.45,357.523,419.263,-249.477,393.13,248.279,-29.7374,97.6739,848.549,-40.4446,140.101,657.052,-99.3196,146.158,450.225,-151.73,196.323,243.3,-228.044,233.576,208.915,-11.6281,214.561,189.515
57,0,-2.22148,419.748,1131.95,18.5636,147.732,1135.8,-201.247,316.341,1200.67,-187.738,211.859,1203.22,-9.32725,485.611,852.236,37.6077,469.793,663.983,-88.6059,474.172,559.096,-277.656,409.691,394.451,-355.812,357.668,412.515,-229.503,393.693,247.982,-35.9825,97.7685,848.315,-48.6903,140.093,657.261,-108.265,146.203,450.808,-161.077,196.433,243.905,-237.44,233.694,209.878,-21.2235,214.425,189.319
58,0,-4.07443,419.326,1134.06,16.114,147.283,1136.03,-203.127,316.024,1202.39,-189.627,211.577,1204.44,-6.89284,485.704,855.333,44.4466,469.098,668.226,-79.8637,473.288,560.51,-265.088,409.664,390.23,-344.503,357.827,404.451,-208.957,394.201,247.067,-41.9936,97.9633,848.148,-56.8375,140.18,657.555,-117.183,146.309,451.478,-170.447,196.583,244.619,-246.862,233.853,211.003,-30.8741,214.311,189.116
59,0,-5.90774,418.905,1136.21,13.6606,146.91,1136.25,-204.983,315.778,1204.15,-191.5,211.353,1205.69,-4.5625,485.848,858.558,50.6633,468.427,672.498,-71.4964,472.431,561.622,-251.988,409.659,385.008,-332.432,357.965,395.157,-187.933,394.741,245.62,-47.7212,98.2543,848.077,-64.859,140.343,657.933,-126.049,146.462,452.237,-179.827,196.756,245.451,-256.303,234.034,212.3,-40.5774,214.209,188.901
60,0,-7.70222,418.492,1138.38,11.2166,146.61,1136.48,-206.802,315.609,1205.94,-193.345,211.193,1206.96,-2.32745,486.039,861.884,56.1956,467.787,676.729,-63.5167,471.618,562.394,-238.323,409.678,378.87,-319.511,358.057,384.741,-166.499,395.394,243.741,-53.1448,98.635,848.119,-72.732,140.562,658.399,-134.839,146.645,453.087,-189.205,196.936,246.407,-265.754,234.22,213.779,-50.3317,214.109,188.671
61,0,-9.43904,418.095,1140.55,8.79477,146.38,1136.71,-208.57,315.522,1207.73,-195.156,211.102,1208.24,-0.190395,486.27,865.283,60.9864,467.178,680.849,-55.9295,470.864,562.789,-224.055,409.723,371.922,-305.666,358.086,373.335,-144.696,396.229,241.543,-58.2705,99.0969,848.283,-80.4372,140.818,658.95,-143.531,146.843,454.026,-198.568,197.103,247.491,-275.205,234.389,215.445,-60.1354,214.001,188.425
62,0,-11.0999,417.725,1142.7,6.40784,146.217,1136.95,-210.275,315.521,1209.52,-196.922,211.089,1209.53,1.83357,486.536,868.717,64.9859,466.599,684.789,-48.7327,470.175,562.781,-209.151,409.796,364.293,-290.833,358.053,361.088,-122.543,397.286,239.142,-63.1249,99.6295,848.569,-87.9581,141.095,659.583,-152.107,147.043,455.054,-207.905,197.242,248.706,-284.649,234.521,217.298,-69.9876,213.88,188.165
63,0,-12.6671,417.392,1144.8,4.06871,146.115,1137.19,-211.904,315.608,1211.28,-198.635,211.158,1210.82,3.71693,486.832,872.142,68.155,466.049,688.483,-41.9181,469.555,562.356,-193.581,409.898,356.125,-274.973,357.969,348.175,-100.051,398.571,236.658,-67.7477,100.221,848.967,-95.2799,141.377,660.293,-160.55,147.234,456.166,-217.207,197.337,250.052,-294.076,234.599,219.337,-79.8881,213.737,187.893
64,0,-14.1238,417.107,1146.83,1.79069,146.071,1137.45,-213.445,315.788,1212.99,-200.287,211.318,1212.09,5.42044,487.155,875.508,70.4676,465.523,691.87,-35.4734,469.002,561.507,-177.332,410.035,347.578,-258.072,357.861,334.788,-77.2275,400.049,234.215,-72.1827,100.86,849.462,-102.389,141.655,661.073,-168.844,147.408,457.357,-226.464,197.376,251.527,-303.478,234.607,221.557,-89.837,213.572,187.615
65,0,-15.4542,416.883,1148.78,-0.412447,146.079,1137.71,-214.886,316.061,1214.63,-201.87,211.573,1213.32,6.89472,487.502,878.756,71.9136,465.015,694.898,-29.3837,468.511,560.245,-160.41,410.208,338.818,-240.147,357.766,321.132,-54.0914,401.647,231.931,-76.4711,101.535,850.033,-109.272,141.923,661.912,-176.978,147.558,458.62,-235.669,197.35,253.127,-312.847,234.535,223.95,-99.8349,213.381,187.337
66,0,-16.6433,416.728,1150.62,-2.52631,146.136,1137.98,-216.216,316.43,1216.17,-203.373,211.929,1214.5,8.08271,487.876,881.821,72.5003,464.521,697.523,-23.6339,468.077,558.589,-142.849,410.418,330.017,-221.254,357.725,307.425,-30.6797,403.265,229.923,-80.6451,102.233,850.658,-115.916,142.176,662.799,-184.942,147.682,459.946,-244.816,197.254,254.845,-322.178,234.375,226.507,-109.882,213.167,187.064
67,0,-17.6778,416.651,1152.34,-4.53599,146.237,1138.27,-217.424,316.894,1217.61,-204.788,212.389,1215.62,8.92301,488.277,884.633,72.2545,464.037,699.71,-18.2104,467.692,556.573,-124.719,410.663,321.345,-201.494,357.778,293.889,-7.05979,404.777,228.294,-84.7245,102.946,851.312,-122.307,142.418,663.718,-192.726,147.779,461.324,-253.9,197.087,256.673,-331.465,234.128,229.217,-119.978,212.931,186.804
68,0,-18.5452,416.658,1153.91,-6.42615,146.378,1138.55,-218.499,317.454,1218.9,-206.105,212.956,1216.64,9.35419,488.71,887.123,71.2231,463.562,701.436,-13.1028,467.35,554.237,-106.127,410.939,312.963,-181.012,357.959,280.743,16.6632,406.058,227.133,-88.7143,103.666,851.974,-128.431,142.651,664.655,-200.323,147.852,462.742,-262.921,196.852,258.602,-340.706,233.797,232.069,-130.123,212.679,186.562
69,0,-19.2349,416.751,1155.34,-8.18124,146.557,1138.83,-219.432,318.108,1220.05,-207.312,213.63,1217.56,9.31987,489.182,889.224,69.4726,463.093,702.691,-8.30605,467.043,551.633,-87.2245,411.235,305.016,-160.006,358.286,268.191,40.3407,406.991,226.508,-92.6059,104.384,852.621,-134.273,142.883,665.591,-207.726,147.903,464.187,-271.876,196.554,260.623,-349.899,233.39,235.051,-140.313,212.416,186.343
70,0,-19.7375,416.934,1156.6,-9.78586,146.772,1139.11,-220.214,318.855,1221.03,-208.399,214.41,1218.35,8.77445,489.696,890.875,67.089,462.631,703.477,-3.82082,466.765,548.814,-68.2059,411.54,297.627,-138.719,358.762,256.418,63.778,407.484,226.457,-96.3779,105.098,853.237,-139.815,143.122,666.506,-214.927,147.937,465.643,-280.766,196.201,262.725,-359.045,232.917,238.154,-150.545,212.146,186.149
71,0,-20.0458,417.204,1157.67,-11.2251,147.024,1139.36,-220.838,319.691,1221.81,-209.355,215.294,1218.99,7.68926,490.256,892.026,64.1748,462.179,703.807,0.345385,466.51,545.836,-49.3048,411.835,290.891,-117.444,359.373,245.58,86.736,407.483,226.981,-99.9993,105.804,853.805,-145.039,143.375,667.381,-221.918,147.958,467.094,-289.592,195.801,264.897,-368.144,232.39,241.368,-160.814,211.875,185.98
72,0,-20.1541,417.56,1158.56,-12.4851,147.313,1139.59,-221.296,320.615,1222.4,-210.169,216.278,1219.46,6.05857,490.863,892.645,60.8463,461.74,703.705,4.17855,466.274,542.756,-30.7894,412.102,284.868,-96.5087,360.085,235.798,108.937,406.978,228.04,-103.432,106.501,854.312,-149.925,143.652,668.192,-228.688,147.973,468.525,-298.354,195.364,267.13,-377.199,231.819,244.685,-171.114,211.606,185.835
73,0,-20.0593,417.997,1159.25,-13.5535,147.643,1139.78,-221.586,321.621,1222.77,-210.833,217.354,1219.76,3.9049,491.513,892.714,57.2302,461.318,703.206,7.65888,466.051,539.623,-12.9527,412.319,279.586,-76.2721,360.851,227.149,130.073,406.004,229.548,-106.634,107.192,854.745,-154.45,143.958,668.917,-235.223,147.983,469.918,-307.05,194.898,269.415,-386.21,231.213,248.099,-181.439,211.343,185.707
74,0,-19.7601,418.509,1159.74,-14.4199,148.017,1139.91,-221.703,322.705,1222.93,-211.336,218.517,1219.86,1.283,492.194,892.242,53.4582,460.92,702.352,10.7622,465.838,536.483,3.89918,412.465,275.036,-57.1075,361.618,219.669,149.821,404.636,231.374,-109.562,107.88,855.094,-158.587,144.298,669.531,-241.504,147.993,471.258,-315.677,194.41,271.744,-395.173,230.578,251.609,-191.783,211.085,185.59
75,0,-19.2581,419.091,1160.02,-15.0765,148.441,1139.98,-221.649,323.862,1222.85,-211.674,219.755,1219.76,-1.71828,492.893,891.256,49.6623,460.55,701.191,13.462,465.629,533.376,19.4613,412.521,271.175,-39.3875,362.325,213.35,167.861,402.98,233.349,-112.174,108.572,855.346,-162.305,144.674,670.007,-247.508,148.004,472.529,-324.225,193.905,274.111,-404.08,229.918,255.217,-202.142,210.834,185.472
76,0,-18.5572,419.737,1160.1,-15.5188,148.922,1139.97,-221.425,325.086,1222.55,-211.842,221.06,1219.43,-4.9768,493.587,889.808,45.9695,460.214,699.774,15.7319,465.423,530.331,33.4447,412.473,267.932,-23.4658,362.919,208.145,183.889,401.161,235.271,-114.43,109.272,855.486,-165.569,145.085,670.319,-253.206,148.016,473.717,-332.679,193.387,276.514,-412.918,229.232,258.928,-212.513,210.586,185.342
77,0,-17.6642,420.442,1159.97,-15.7455,149.465,1139.88,-221.036,326.37,1222.02,-211.838,222.42,1218.89,-8.34118,494.25,887.971,42.496,459.919,698.153,17.5486,465.216,527.372,45.5922,412.31,265.219,-9.65852,363.356,203.971,197.644,399.308,236.926,-116.29,109.99,855.497,-168.337,145.525,670.439,-258.561,148.026,474.809,-341.017,192.855,278.952,-421.659,228.519,262.754,-222.898,210.339,185.186
78,0,-16.5887,421.199,1159.65,-15.7592,150.079,1139.68,-220.49,327.707,1221.26,-211.664,223.825,1218.13,-11.6381,494.857,885.832,39.3431,459.669,696.38,18.8942,465.008,524.516,55.6919,412.028,262.93,1.77281,363.604,200.721,208.92,397.541,238.102,-117.723,110.731,855.358,-170.565,145.988,670.34,-263.533,148.031,475.795,-349.206,192.31,281.429,-430.268,227.776,266.714,-233.299,210.091,184.99
79,0,-15.3432,422.004,1159.13,-15.5667,150.769,1139.37,-219.798,329.089,1220.3,-211.324,225.262,1217.14,-14.6829,495.382,883.493,36.5924,459.472,694.502,19.7592,464.802,521.773,63.5894,411.627,260.959,10.6373,363.65,198.27,217.58,395.958,238.613,-118.695,111.502,855.046,-172.2,146.461,669.996,-268.073,148.026,476.671,-357.204,191.751,283.954,-438.692,227,270.831,-243.723,209.841,184.743
80,0,-13.9428,422.855,1158.44,-15.1786,151.542,1138.94,-218.972,330.509,1219.14,-210.828,226.722,1215.94,-17.2922,495.806,881.058,34.3029,459.332,692.564,20.144,464.601,519.151,69.1966,411.115,259.207,16.826,363.495,196.487,223.574,394.63,238.316,-119.177,112.308,854.536,-173.189,146.93,669.383,-272.128,148.005,477.432,-364.958,191.176,286.539,-446.865,226.19,275.138,-254.178,209.588,184.437
81,0,-12.4053,423.747,1157.58,-14.6098,152.401,1138.39,-218.028,331.959,1217.79,-210.187,228.195,1214.54,-19.2987,496.116,878.632,32.5091,459.255,690.603,20.0602,464.414,516.652,72.496,410.504,257.586,20.3186,363.159,195.242,226.936,393.594,237.129,-119.142,113.148,853.803,-173.473,147.38,668.479,-275.639,147.96,478.081,-372.405,190.585,289.204,-454.705,225.352,279.673,-264.671,209.336,184.072
82,0,-10.7511,424.68,1156.58,-13.8789,153.351,1137.71,-216.984,333.431,1216.28,-209.416,229.67,1212.94,-20.5657,496.313,876.311,31.2201,459.249,688.649,19.5308,464.249,514.28,73.541,409.811,256.028,21.1847,362.671,194.412,227.785,392.86,235.042,-118.563,114.022,852.822,-172.996,147.792,667.269,-278.547,147.884,478.625,-379.472,189.979,291.971,-462.113,224.495,284.478,-275.206,209.093,183.654
83,0,-9.00243,425.652,1155.44,-13.008,154.392,1136.91,-215.86,334.917,1214.63,-208.535,231.142,1211.16,-20.9999,496.41,874.176,30.4202,459.318,686.728,18.5889,464.12,512.037,72.452,409.057,254.488,19.5782,362.072,193.892,226.319,392.409,232.117,-117.413,114.923,851.575,-171.702,148.147,665.745,-280.79,147.769,479.076,-386.078,189.36,294.869,-468.979,223.632,289.603,-285.78,208.867,183.206
84,0,-7.18342,426.661,1154.21,-12.022,155.522,1135.99,-214.676,336.411,1212.87,-207.564,232.604,1209.23,-20.5619,496.433,872.288,30.0704,459.469,684.855,17.2757,464.04,509.926,69.4075,408.265,252.943,15.7271,361.405,193.592,222.798,392.203,228.484,-115.667,115.844,850.051,-169.542,148.429,663.905,-282.308,147.608,479.452,-392.138,188.734,297.929,-475.184,222.785,295.096,-296.38,208.671,182.76
85,0,-5.31949,427.708,1152.89,-10.9482,156.738,1134.95,-213.454,337.905,1211.02,-206.528,234.052,1207.16,-19.2726,496.418,870.685,30.1116,459.707,683.042,15.6373,464.025,507.949,64.6328,407.459,251.389,9.91733,360.712,193.441,217.527,392.192,224.329,-113.303,116.773,848.252,-166.476,148.62,661.76,-283.047,147.394,479.776,-397.561,188.11,301.188,-480.605,221.98,301.003,-306.979,208.521,182.367
86,0,-3.43696,428.791,1151.52,-9.81534,158.032,1133.81,-212.218,339.395,1209.1,-205.452,235.484,1204.98,-17.2139,496.412,869.379,30.4675,460.035,681.294,13.7211,464.087,506.108,58.3854,406.662,249.843,2.47374,360.035,193.389,210.832,392.323,219.869,-110.302,117.695,846.191,-162.475,148.708,659.332,-282.955,147.123,480.074,-402.261,187.495,304.682,-485.12,221.246,307.365,-317.526,208.428,182.09
87,0,-1.56243,429.909,1150.12,-8.65293,159.397,1132.58,-210.989,340.875,1207.15,-204.361,236.898,1202.71,-14.5244,496.464,868.358,31.0492,460.456,679.611,11.5715,464.238,504.404,50.9398,405.899,248.328,-6.26084,359.404,193.397,203.041,392.539,215.334,-106.654,118.594,843.898,-157.528,148.681,656.653,-281.992,146.79,480.379,-406.154,186.903,308.445,-488.615,220.615,314.211,-327.949,208.404,182.008
88,0,0.277617,431.06,1148.71,-7.49047,160.819,1131.28,-209.79,342.341,1205.2,-203.283,238.296,1200.39,-11.3905,496.623,867.586,31.7589,460.97,677.99,9.22611,464.486,502.835,42.5717,405.188,246.877,-15.9463,358.845,193.441,194.463,392.793,210.943,-102.358,119.454,841.419,-151.64,148.535,653.77,-280.128,146.394,480.723,-409.166,186.345,312.508,-490.993,220.119,321.555,-338.148,208.453,182.208
89,0,2.05742,432.24,1147.32,-6.35654,162.287,1129.92,-208.642,343.79,1203.27,-202.243,239.68,1198.04,-8.03244,496.93,867.011,32.4946,461.574,676.426,6.71252,464.836,501.399,33.5444,404.546,245.518,-26.2638,358.37,193.508,185.368,393.045,206.883,-97.4295,120.26,838.815,-144.834,148.269,650.738,-277.345,145.936,481.144,-411.232,185.835,316.896,-492.176,219.787,329.392,-347.992,208.571,182.778
90,0,3.75239,433.447,1145.97,-5.27809,163.786,1128.54,-207.562,345.219,1201.39,-201.266,241.051,1195.69,-4.68765,497.418,866.567,33.1539,462.263,674.909,4.0458,465.284,500.087,24.0961,403.986,244.276,-36.9311,357.986,193.587,175.983,393.262,203.292,-91.9002,120.998,836.16,-137.155,147.888,647.628,-273.639,145.419,481.676,-412.302,185.382,321.623,-492.116,219.643,337.689,-357.321,208.743,183.806
91,0,5.33958,434.677,1144.68,-4.27973,165.301,1127.15,-206.571,346.627,1199.58,-200.373,242.414,1193.38,-1.59294,498.103,866.183,33.6382,463.028,673.433,1.22758,465.824,498.891,14.4319,403.513,243.17,-47.713,357.687,193.674,166.482,393.422,200.257,-85.8231,121.655,833.536,-128.665,147.404,644.514,-269.02,144.85,482.353,-412.342,184.998,326.689,-490.794,219.706,346.393,-365.949,208.943,185.367
92,0,6.79808,435.924,1143.47,-3.38317,166.815,1125.79,-205.681,348.013,1197.88,-199.585,243.771,1191.13,1.03319,498.989,865.789,33.8551,463.858,671.991,-1.7536,466.444,497.797,4.7171,403.129,242.207,-58.4267,357.463,193.766,156.988,393.513,197.81,-79.2723,122.224,831.03,-119.444,146.833,641.48,-263.513,144.237,483.206,-411.331,184.691,332.079,-488.222,219.985,355.416,-373.665,209.134,187.512
93,0,8.10937,437.184,1142.36,-2.60671,168.313,1124.47,-204.906,349.375,1196.29,-198.917,245.124,1188.98,3.00599,500.062,865.325,33.7219,464.741,670.575,-4.9206,467.128,496.792,-4.92405,402.832,241.385,-68.9432,357.3,193.863,147.576,393.529,195.933,-72.3426,122.7,828.725,-109.584,146.194,638.612,-257.155,143.591,484.259,-409.267,184.463,337.76,-484.445,220.48,364.649,-380.245,209.27,190.269
94,0,9.25759,438.45,1141.35,-1.96496,169.781,1123.23,-204.257,350.714,1194.85,-198.383,246.475,1186.95,4.18645,501.294,864.743,33.1673,465.662,669.182,-8.30491,467.856,495.861,-14.4081,402.613,240.696,-79.1832,357.178,193.962,138.286,393.472,194.571,-65.1469,123.083,826.699,-99.1897,145.514,635.996,-249.997,142.927,485.533,-406.161,184.315,343.679,-479.536,221.181,373.954,-385.455,209.301,193.628
95,0,10.2298,439.716,1140.46,-1.4686,171.205,1122.09,-203.739,352.029,1193.57,-197.991,247.824,1185.07,4.48881,502.645,864.015,32.1331,466.605,667.812,-11.9431,468.606,494.992,-23.6886,402.463,240.126,-89.1116,357.079,194.065,129.127,393.348,193.642,-57.8116,123.375,825.019,-88.3707,144.817,633.716,-242.101,142.258,487.038,-402.035,184.245,349.762,-473.592,222.064,383.172,-389.07,209.178,197.544
96,0,11.0159,440.977,1139.68,-1.12437,172.574,1121.09,-203.359,353.318,1192.46,-197.748,249.171,1183.38,3.88301,504.07,863.134,30.5746,467.555,666.468,-15.8732,469.358,494.174,-32.751,402.368,239.657,-98.7283,356.988,194.173,120.088,393.169,193.052,-50.4706,123.581,823.732,-77.2383,144.133,631.849,-233.536,141.602,488.776,-396.923,184.244,355.919,-466.727,223.099,392.13,-390.878,208.857,201.935
97,0,11.6091,442.227,1139.03,-0.935105,173.879,1120.23,-203.118,354.581,1191.54,-197.653,250.511,1181.88,2.39226,505.518,862.111,28.4616,468.495,665.155,-20.1307,470.091,493.399,-41.6057,402.315,239.273,-108.059,356.889,194.287,111.147,392.946,192.704,-43.2577,123.709,822.873,-65.9021,143.487,630.463,-224.378,140.976,490.741,-390.866,184.301,362.038,-459.064,224.241,400.645,-390.694,208.311,206.682
98,0,12.0053,443.46,1138.51,-0.899951,175.112,1119.56,-203.016,355.815,1190.82,-197.707,251.84,1180.61,0.08624,506.94,860.977,25.7777,469.41,663.883,-24.7457,470.788,492.665,-50.2812,402.291,238.959,-117.147,356.775,194.412,102.279,392.695,192.512,-36.2995,123.769,822.454,-54.4656,142.905,629.615,-214.706,140.397,492.917,-383.911,184.402,367.998,-450.728,225.439,408.529,-388.371,207.53,211.642
99,0,12.2038,444.673,1138.1,-1.01461,176.27,1119.07,-203.05,357.018,1190.3,-197.902,253.152,1179.58,-2.92917,508.29,859.777,22.5194,470.288,662.666,-29.7401,471.433,491.973,-58.8171,402.284,238.705,-126.044,356.64,194.553,93.4568,392.429,192.402,-29.7075,123.771,822.471,-43.0242,142.409,629.349,-204.6,139.88,495.278,-376.106,184.529,373.666,-441.84,226.636,415.602,-383.808,206.528,216.651
100,0,12.2063,445.86,1137.81,-1.27171,177.348,1118.79,-203.216,358.187,1189.98,-198.232,254.439,1178.8,-6.52425,509.53,858.564,18.6956,471.115,661.516,-35.1269,472.015,491.329,-67.258,402.285,238.503,-134.801,356.485,194.717,84.6572,392.161,192.318,-23.5719,123.728,822.907,-31.6631,142.017,629.695,-194.142,139.439,497.789,-367.502,184.666,378.903,-432.504,227.771,421.692,-376.954,205.34,221.539
101,0,12.0175,447.017,1137.63,-1.66119,178.348,1118.73,-203.506,359.316,1189.88,-198.685,255.69,1178.3,-10.5587,510.63,857.393,14.325,471.882,660.451,-40.9088,472.529,490.742,-75.6481,402.286,238.354,-143.468,356.313,194.912,75.8612,391.9,192.223,-17.9566,123.649,823.733,-20.4569,141.742,630.666,-183.405,139.086,500.409,-358.145,184.793,383.572,-422.808,228.785,426.647,-367.811,204.026,226.137
102,0,11.6443,448.141,1137.56,-2.1707,179.271,1118.9,-203.913,360.402,1189.98,-199.25,256.897,1178.07,-14.8941,511.571,856.32,9.43535,472.58,659.486,-47.0795,472.97,490.224,-84.0273,402.282,238.257,-152.088,356.132,195.147,67.0548,391.654,192.096,-12.8962,123.548,824.914,-9.46988,141.593,632.262,-172.462,138.829,503.087,-348.082,184.894,387.545,-412.817,229.624,430.335,-356.432,202.654,230.295
103,0,11.0959,449.229,1137.58,-2.78605,180.121,1119.3,-204.429,361.438,1190.28,-199.913,258.048,1178.11,-19.4053,512.343,855.389,4.06053,473.202,658.637,-53.6241,473.34,489.789,-92.429,402.271,238.221,-160.695,355.95,195.432,58.2282,391.427,191.927,-8.39567,123.431,826.413,1.24273,141.574,634.466,-161.375,138.672,505.767,-337.354,184.953,390.7,-402.569,230.243,432.648,-342.918,201.304,233.887
104,0,10.3832,450.277,1137.68,-3.49163,180.902,1119.93,-205.041,362.418,1190.79,-200.66,259.133,1178.44,-23.9885,512.944,854.636,-1.76086,473.747,657.917,-60.521,473.64,489.451,-100.878,402.253,238.251,-169.314,355.78,195.776,49.3751,391.22,191.718,-4.43146,123.309,828.195,11.6332,141.683,637.248,-150.203,138.615,508.391,-325.997,184.96,392.939,-392.075,230.612,433.509,-327.412,200.047,236.819
105,0,9.51893,451.284,1137.86,-4.27076,181.619,1120.79,-205.741,363.335,1191.48,-201.477,260.141,1179.03,-28.5672,513.381,854.084,-7.98764,474.21,657.339,-67.7435,473.876,489.225,-109.392,402.23,238.358,-177.962,355.631,196.19,40.4918,391.033,191.476,-0.955591,123.186,830.229,21.659,141.915,640.564,-138.994,138.656,510.897,-314.041,184.907,394.179,-381.324,230.718,432.869,-310.086,198.941,239.036
106,0,8.51675,452.246,1138.1,-5.10606,182.279,1121.86,-206.516,364.183,1192.36,-202.347,261.061,1179.89,-33.0939,513.668,853.741,-14.5777,474.594,656.912,-75.2618,474.054,489.123,-117.979,402.203,238.551,-186.65,355.514,196.684,31.5767,390.861,191.212,2.09912,123.068,832.493,31.2809,142.262,644.356,-127.788,138.788,513.222,-301.51,184.793,394.364,-370.279,230.566,430.709,-291.134,198.023,240.521
107,0,7.39132,453.16,1138.4,-5.97977,182.886,1123.14,-207.355,364.953,1193.41,-203.256,261.885,1181,-37.5496,513.821,853.604,-21.4894,474.901,656.643,-83.0447,474.181,489.158,-126.642,402.176,238.838,-195.382,355.438,197.268,22.6287,390.702,190.935,4.81244,122.955,834.969,40.4608,142.712,648.559,-116.617,139.001,515.308,-288.421,184.619,393.467,-358.883,230.179,427.037,-270.761,197.302,241.294
108,0,6.1578,454.024,1138.73,-6.87401,183.447,1124.61,-208.247,365.639,1194.61,-204.191,262.605,1182.34,-41.9406,513.859,853.663,-28.6827,475.136,656.536,-91.0605,474.265,489.339,-135.378,402.152,239.228,-204.162,355.409,197.955,13.6474,390.55,190.655,7.2696,122.848,837.648,49.1603,143.253,653.096,-105.507,139.284,517.099,-274.784,184.393,391.484,-347.066,229.596,421.895,-249.174,196.761,241.407
109,0,4.83147,454.834,1139.11,-7.77096,183.967,1126.24,-209.179,366.232,1195.96,-205.137,263.213,1183.9,-46.2927,513.801,853.896,-36.1195,475.303,656.591,-99.2783,474.311,489.67,-144.183,402.133,239.726,-212.989,355.43,198.756,4.63217,390.402,190.38,9.55427,122.746,840.524,57.3399,143.87,657.884,-94.4759,139.621,518.547,-260.6,184.125,388.441,-334.744,228.866,415.349,-226.573,196.36,240.938
110,0,3.42746,455.588,1139.5,-8.65308,184.448,1128.03,-210.14,366.727,1197.43,-206.081,263.704,1185.63,-50.6451,513.665,854.281,-43.7642,475.411,656.808,-107.668,474.327,490.158,-153.047,402.121,240.339,-221.862,355.504,199.68,-4.41803,390.255,190.114,11.7422,122.647,843.592,64.9586,144.547,662.836,-83.5385,139.999,519.614,-245.869,183.83,384.392,-321.832,228.046,407.491,-203.144,196.046,239.98
111,0,1.96043,456.282,1139.91,-9.50325,184.895,1129.93,-211.119,367.115,1199.01,-207.01,264.073,1187.53,-55.0427,513.468,854.792,-51.5832,475.466,657.183,-116.203,474.315,490.801,-161.963,402.117,241.069,-230.78,355.627,200.74,-13.505,390.106,189.861,13.8962,122.547,846.847,71.9743,145.27,667.86,-72.7046,140.403,520.271,-230.582,183.521,379.413,-308.243,227.196,398.44,-179.057,195.758,238.638
112,0,0.444338,456.912,1140.34,-10.3048,185.31,1131.94,-212.105,367.39,1200.67,-207.913,264.317,1189.56,-59.5298,513.221,855.407,-59.5445,475.476,657.709,-124.854,474.278,491.6,-170.922,402.119,241.919,-239.742,355.793,201.945,-22.6314,389.956,189.621,16.0624,122.446,850.277,78.3451,146.023,672.864,-61.9823,140.817,520.504,-214.729,183.213,373.603,-293.898,226.368,388.336,-154.458,195.44,237.017
113,0,-1.10775,457.478,1140.76,-11.0418,185.693,1134.02,-213.088,367.545,1202.41,-208.777,264.433,1191.69,-64.1438,512.934,856.103,-67.617,475.448,658.378,-133.596,474.219,492.549,-179.915,402.124,242.891,-248.748,355.993,203.304,-31.8011,389.804,189.394,18.2682,122.339,853.861,84.0304,146.792,677.757,-51.3787,141.23,520.311,-198.301,182.921,367.083,-278.73,225.605,377.338,-129.476,195.051,235.22
114,0,-2.68372,457.975,1141.18,-11.6988,186.046,1136.14,-214.055,367.574,1204.2,-209.59,264.418,1193.89,-68.9101,512.612,856.863,-75.7694,475.387,659.182,-142.402,474.136,493.642,-188.938,402.129,243.983,-257.795,356.215,204.823,-41.0185,389.652,189.177,20.5223,122.227,857.57,88.9939,147.563,682.455,-40.9022,141.631,519.703,-181.294,182.656,359.986,-262.688,224.94,365.625,-104.221,194.569,233.338
115,0,-4.27245,458.402,1141.58,-12.2613,186.368,1138.29,-214.998,367.471,1206.01,-210.342,264.272,1196.12,-73.8393,512.255,857.67,-83.9693,475.298,660.107,-151.246,474.027,494.87,-197.982,402.128,245.195,-266.879,356.444,206.505,-50.289,389.501,188.968,22.815,122.106,861.362,93.2049,148.323,686.875,-30.5626,142.009,518.707,-163.712,182.428,352.459,-245.747,224.388,353.388,-78.786,193.999,231.455
116,0,-5.86371,458.758,1141.98,-12.7154,186.659,1140.42,-215.906,367.23,1207.83,-211.021,263.992,1198.35,-78.9253,511.864,858.515,-92.182,475.183,661.142,-160.1,473.891,496.222,-207.042,402.113,246.524,-275.998,356.663,208.352,-59.6186,389.352,188.764,25.1214,121.976,865.182,96.6417,149.06,690.947,-20.3734,142.36,517.361,-145.571,182.244,344.658,-227.907,223.955,340.83,-53.2545,193.366,229.642
117,0,-7.44797,459.044,1142.35,-13.0481,186.918,1142.51,-216.768,366.847,1209.63,-211.616,263.579,1200.55,-84.1454,511.436,859.386,-100.37,475.043,662.27,-168.937,473.723,497.686,-216.114,402.079,247.965,-285.145,356.858,210.359,-69.013,389.207,188.562,27.4033,121.835,868.967,99.2939,149.764,694.608,-10.3519,142.679,515.713,-126.905,182.108,336.741,-209.198,223.633,328.156,-27.705,192.715,227.958
118,0,-9.01614,459.258,1142.7,-13.2474,187.144,1144.54,-217.575,366.318,1211.38,-212.114,263.032,1202.69,-89.4617,510.965,860.275,-108.492,474.876,663.476,-177.725,473.52,499.248,-225.19,402.018,249.513,-294.313,357.011,212.521,-78.4776,389.064,188.358,29.6134,121.678,872.643,101.165,150.425,697.809,-0.520195,142.967,513.818,-107.771,182.025,328.865,-189.687,223.406,315.575,-2.21691,192.104,226.454
119,0,-10.5593,459.402,1143.02,-13.3024,187.337,1146.47,-218.318,365.64,1213.08,-212.505,262.35,1204.73,-94.8239,510.449,861.173,-116.505,474.678,664.74,-186.432,473.278,500.893,-234.267,401.924,251.162,-303.493,357.111,214.83,-88.0169,388.924,188.151,31.6984,121.498,876.13,102.272,151.036,700.515,9.09461,143.226,511.739,-88.2494,181.997,321.181,-169.473,223.256,303.287,23.1231,191.595,225.172
120,0,-12.0682,459.48,1143.31,-13.2029,187.495,1148.3,-218.985,364.81,1214.68,-212.777,261.534,1206.66,-100.172,509.884,862.073,-124.359,474.445,666.044,-195.024,472.994,502.604,-243.337,401.795,252.905,-312.676,357.147,217.273,-97.634,388.784,187.94,33.6031,121.288,879.345,102.653,151.594,702.703,18.4601,143.461,509.536,-68.4477,182.025,313.827,-148.694,223.167,291.482,48.2159,191.25,224.142
121,0,-13.5332,459.493,1143.56,-12.9404,187.619,1150,-219.567,363.827,1216.18,-212.918,260.584,1208.44,-105.441,509.268,862.965,-132.005,474.17,667.365,-203.467,472.667,504.365,-252.396,401.627,254.733,-321.854,357.115,219.839,-107.331,388.641,187.724,35.2736,121.035,882.206,102.359,152.094,704.369,27.5386,143.679,507.272,-48.5025,182.115,306.925,-127.524,223.126,280.329,72.9459,191.121,223.387
122,0,-14.9436,459.444,1143.78,-12.5073,187.707,1151.54,-220.055,362.693,1217.54,-212.919,259.5,1210.06,-110.564,508.602,863.837,-139.391,473.846,668.682,-211.723,472.297,506.159,-261.435,401.423,256.639,-331.019,357.015,222.516,-117.107,388.491,187.504,36.6608,120.727,884.637,101.461,152.539,705.519,36.2879,143.889,505,-28.5781,182.27,300.575,-106.168,223.127,269.975,97.1777,191.249,222.913
123,0,-16.2874,459.339,1143.95,-11.8977,187.761,1152.91,-220.438,361.41,1218.75,-212.767,258.287,1211.48,-115.476,507.886,864.676,-146.462,473.467,669.972,-219.755,471.885,507.967,-270.45,401.186,258.615,-340.164,356.853,225.294,-126.961,388.33,187.283,37.7239,120.35,886.573,100.046,152.931,706.176,44.6611,144.104,502.77,-8.86414,182.5,294.853,-84.8638,223.174,260.532,120.755,191.66,222.715
124,0,-17.5515,459.181,1144.08,-11.107,187.779,1154.11,-220.707,359.983,1219.8,-212.455,256.946,1212.71,-120.113,507.125,865.468,-153.167,473.029,671.209,-227.527,471.436,509.774,-279.434,400.926,260.654,-349.286,356.643,228.165,-136.891,388.156,187.064,38.4338,119.892,887.963,98.2116,153.277,706.376,52.6081,144.333,500.619,10.4273,182.812,289.803,-63.8725,223.279,252.08,143.502,192.367,222.765
125,0,-18.7213,458.973,1144.15,-10.1324,187.763,1155.11,-220.853,358.419,1220.65,-211.975,255.483,1213.72,-124.423,506.323,866.197,-159.455,472.527,672.37,-235.002,470.953,511.562,-288.383,400.653,262.749,-358.382,356.401,231.122,-146.894,387.965,186.849,38.7766,119.348,888.775,96.0696,153.588,706.164,60.0764,144.592,498.572,29.0675,183.217,285.441,-43.4741,223.461,244.66,165.226,193.372,223.016
126,0,-19.7808,458.719,1144.16,-8.97277,187.712,1155.91,-220.869,356.727,1221.31,-211.319,253.905,1214.5,-128.355,505.486,866.846,-165.279,471.96,673.431,-242.145,470.446,513.314,-297.29,400.382,264.896,-367.452,356.151,234.163,-156.966,387.757,186.644,38.7569,118.72,889,93.7361,153.875,705.593,67.012,144.891,496.644,46.8178,183.729,281.751,-23.9588,223.744,238.274,185.72,194.665,223.403
127,0,-20.7129,458.422,1144.12,-7.62898,187.625,1156.51,-220.745,354.919,1221.75,-210.484,252.22,1215.06,-131.872,504.62,867.398,-170.595,471.329,674.367,-248.922,469.924,515.015,-306.151,400.128,267.092,-376.499,355.919,237.289,-167.104,387.53,186.451,38.4011,118.021,888.654,91.329,154.152,704.723,73.3612,145.242,494.835,63.4371,184.359,278.69,-5.61826,224.157,232.886,204.77,196.229,223.837
128,0,-21.4999,458.084,1144,-6.10382,187.501,1156.91,-220.476,353.01,1221.97,-209.468,250.438,1215.38,-134.94,503.729,867.834,-175.364,470.642,675.155,-255.303,469.395,516.65,-314.957,399.908,269.333,-385.525,355.734,240.506,-177.308,387.286,186.272,37.7594,117.275,887.777,88.9624,154.432,703.611,79.0723,145.657,493.137,78.6907,185.117,276.188,11.2646,224.725,228.427,222.166,198.042,224.22
129,0,-22.1239,457.705,1143.8,-4.40223,187.339,1157.1,-220.056,351.015,1221.96,-208.272,248.572,1215.47,-137.536,502.822,868.135,-179.552,469.906,675.771,-261.257,468.873,518.206,-323.698,399.741,271.617,-394.529,355.623,243.821,-187.576,387.028,186.109,36.9076,116.52,886.436,86.7414,154.73,702.318,84.0971,146.141,491.53,92.3591,186.014,274.155,26.426,225.472,224.798,237.704,200.072,224.446
130,0,-22.5675,457.283,1143.52,-2.53132,187.135,1157.1,-219.482,348.954,1221.73,-206.898,246.637,1215.33,-139.642,501.902,868.284,-183.13,469.135,676.196,-266.757,468.368,519.671,-332.36,399.642,273.945,-403.508,355.614,247.246,-197.907,386.759,185.96,35.9455,115.805,884.717,84.7569,155.056,700.898,88.3934,146.701,489.987,104.248,187.053,272.49,39.6317,226.413,221.88,251.2,202.283,224.413
131,0,-22.8144,456.818,1143.14,-0.500511,186.888,1156.9,-218.752,346.846,1221.27,-205.355,244.649,1214.98,-141.245,500.976,868.264,-186.072,468.345,676.408,-271.775,467.894,521.034,-340.92,399.624,276.316,-412.454,355.729,250.797,-208.302,386.483,185.823,34.9944,115.186,882.724,83.0814,155.418,699.396,91.9262,147.339,488.477,114.194,188.236,271.083,50.6873,227.556,219.54,262.5,204.628,224.031
132,0,-22.8505,456.304,1142.68,1.67851,186.592,1156.53,-217.866,344.714,1220.59,-203.65,242.625,1214.42,-142.338,500.049,868.058,-188.357,467.559,676.389,-276.285,467.462,522.288,-349.348,399.698,278.732,-421.347,355.984,254.49,-218.76,386.204,185.692,34.1901,114.72,880.569,81.7655,155.818,697.852,94.6704,148.051,486.968,122.078,189.558,269.827,59.4472,228.899,217.644,271.488,207.054,223.235
133,0,-22.6644,455.738,1142.1,3.99169,186.243,1155.98,-216.826,342.579,1219.69,-201.798,240.583,1213.68,-142.916,499.127,867.651,-189.964,466.798,676.126,-280.257,467.084,523.426,-357.605,399.867,281.194,-430.155,356.389,258.348,-229.278,385.923,185.563,33.6734,114.459,878.368,80.8359,156.255,696.293,96.6118,148.832,485.428,127.826,191.005,268.624,65.822,230.429,216.063,278.095,209.502,221.994
134,0,-22.2485,455.112,1141.43,6.4227,185.836,1155.29,-215.638,340.464,1218.59,-199.814,238.542,1212.75,-142.978,498.219,867.031,-190.875,466.091,675.604,-283.664,466.771,524.445,-365.64,400.132,283.71,-438.832,356.94,262.397,-239.849,385.639,185.428,33.5784,114.442,876.229,80.2945,156.718,694.737,97.7491,149.672,483.83,131.416,192.561,267.391,69.7838,232.117,214.682,282.306,211.908,220.31
135,0,-21.5993,454.422,1140.65,8.95299,185.365,1154.46,-214.308,338.39,1217.31,-197.716,236.521,1211.68,-142.522,497.332,866.189,-191.073,465.463,674.816,-286.472,466.531,525.344,-373.39,400.483,286.287,-447.311,357.625,266.667,-250.465,385.348,185.281,34.0173,114.688,874.243,80.1198,157.193,693.191,98.0945,150.556,482.152,132.879,194.197,266.064,71.3684,233.929,213.405,284.164,214.206,218.224
136,0,-20.7183,453.659,1139.76,11.5619,184.825,1153.51,-212.849,336.378,1215.87,-195.525,234.538,1210.47,-141.55,496.476,865.12,-190.539,464.944,673.758,-288.645,466.375,526.126,-380.781,400.908,288.94,-455.509,358.42,271.192,-261.109,385.041,185.117,35.0665,115.191,872.48,80.2688,157.658,691.656,97.6737,151.468,480.382,132.3,195.883,264.603,70.6745,235.816,212.164,283.772,216.335,215.81
137,0,-19.6124,452.819,1138.77,14.227,184.211,1152.46,-211.271,334.445,1214.27,-193.265,232.609,1209.15,-140.063,495.662,863.824,-189.255,464.559,672.429,-290.146,466.308,526.798,-387.732,401.388,291.688,-463.319,359.287,276.011,-271.756,384.707,184.936,36.7534,115.917,870.982,80.6806,158.089,690.123,96.5261,152.386,478.515,129.813,197.582,262.991,67.859,237.724,210.915,281.288,218.24,213.17
138,0,-18.2939,451.895,1137.68,16.9239,183.517,1151.33,-209.592,332.608,1212.56,-190.96,230.748,1207.75,-138.065,494.902,862.306,-187.202,464.334,670.838,-290.932,466.337,527.368,-394.151,401.899,294.557,-470.62,360.18,281.167,-282.375,384.333,184.744,39.0468,116.803,869.759,81.2811,158.458,688.583,94.7031,153.291,476.555,125.597,199.254,261.231,63.1295,239.596,209.642,276.919,219.878,210.42
139,0,-16.7807,450.884,1136.51,19.6274,182.74,1150.14,-207.829,330.878,1210.75,-188.637,228.968,1206.28,-135.559,494.207,860.582,-184.363,464.289,668.997,-290.96,466.466,527.853,-399.946,402.413,297.582,-477.27,361.044,286.703,-292.922,383.903,184.554,41.8534,117.762,868.792,81.9878,158.739,687.022,92.2663,154.158,474.514,119.862,200.857,259.348,56.7333,241.373,208.35,270.913,221.222,207.681
140,0,-15.0959,449.785,1135.26,22.3109,181.878,1148.92,-206.003,329.265,1208.88,-186.32,227.277,1204.78,-132.552,493.588,858.671,-180.721,464.44,666.927,-290.186,466.698,528.271,-405.023,402.903,300.803,-483.124,361.82,292.663,-303.343,383.403,184.393,45.0208,118.692,868.032,82.7151,158.907,685.429,89.285,154.968,472.412,112.845,202.352,257.38,48.9444,242.999,207.062,263.539,222.258,205.064
141,0,-13.2674,448.597,1133.96,24.9477,180.929,1147.67,-204.135,327.774,1206.96,-184.037,225.683,1203.28,-129.052,493.055,856.602,-176.266,464.796,664.657,-288.572,467.033,528.643,-409.293,403.342,304.265,-488.028,362.445,299.089,-313.571,382.823,184.3,48.348,119.483,867.41,83.3789,158.941,683.793,85.8328,155.7,470.275,104.794,203.703,255.375,40.0487,244.427,205.815,255.079,222.991,202.666
142,0,-11.327,447.326,1132.62,27.5109,179.894,1146.41,-202.249,326.405,1205.04,-181.814,224.188,1201.79,-125.073,492.613,854.413,-170.991,465.36,662.224,-286.08,467.47,528.999,-412.676,403.706,308.018,-491.837,362.864,306.011,-323.524,382.161,184.325,51.6034,120.032,866.844,83.901,158.828,682.111,81.984,156.338,468.131,95.9555,204.88,253.384,30.3298,245.621,204.65,245.811,223.441,200.554
143,0,-9.30982,445.976,1131.27,29.9744,178.775,1145.18,-200.368,325.156,1203.13,-179.676,222.792,1200.34,-120.632,492.266,852.147,-164.899,466.125,659.67,-282.684,468.007,529.368,-415.103,403.975,312.108,-494.422,363.023,313.451,-333.105,381.423,184.533,54.5468,120.25,866.247,84.2117,158.563,680.381,77.8102,156.868,466.011,86.5656,205.861,251.459,20.0553,246.555,203.607,235.993,223.638,198.77
144,0,-7.2528,444.559,1129.92,32.313,177.576,1143.97,-198.519,324.022,1201.27,-177.645,221.494,1198.95,-115.752,492.012,849.855,-158.004,467.079,657.047,-278.368,468.636,529.784,-416.52,404.136,316.578,-495.675,362.885,321.411,-342.199,380.627,185.001,56.9539,120.078,865.54,84.2524,158.147,678.611,73.3769,157.282,463.945,76.8379,206.635,249.644,9.46529,247.221,202.719,225.853,223.623,197.326
145,0,-5.19376,443.086,1128.62,34.5032,176.305,1142.81,-196.724,322.991,1199.48,-175.742,220.287,1197.65,-110.463,491.848,847.589,-150.329,468.202,654.413,-273.128,469.349,530.283,-416.89,404.184,321.458,-495.522,362.424,329.871,-350.674,379.804,185.811,58.6406,119.488,864.657,83.9762,157.592,676.81,68.7402,157.577,461.959,66.9569,207.199,247.978,-1.23634,247.624,202.01,215.58,223.441,196.209
146,0,-3.17007,441.573,1127.38,36.5237,174.968,1141.7,-195.008,322.053,1197.78,-173.986,219.165,1196.45,-104.799,491.765,845.406,-141.911,469.465,651.83,-266.978,470.135,530.902,-416.194,404.121,326.767,-493.929,361.631,338.786,-358.38,378.998,187.045,59.4812,118.492,863.558,83.3477,156.917,674.994,63.9452,157.753,460.078,57.0721,207.561,246.486,-11.8867,247.783,201.491,205.324,223.139,195.384
147,0,-1.21739,440.035,1126.22,38.3559,173.575,1140.66,-193.391,321.193,1196.21,-172.392,218.119,1195.36,-98.8014,491.75,843.362,-132.801,470.836,649.366,-259.946,470.978,531.677,-414.429,403.955,332.499,-490.901,360.517,348.082,-365.151,378.266,188.779,59.4212,117.135,862.229,82.3418,156.145,673.181,59.0244,157.816,458.32,47.2962,207.737,245.185,-22.366,247.728,201.161,195.188,222.762,194.804
148,0,0.631556,438.491,1125.19,39.9841,172.137,1139.69,-191.894,320.397,1194.78,-170.972,217.139,1194.41,-92.5184,491.791,841.513,-123.061,472.277,647.086,-252.077,471.859,532.64,-411.609,403.703,338.629,-486.492,359.109,357.656,-370.806,377.669,191.074,58.4798,115.493,860.687,80.9426,155.304,671.392,53.9973,157.775,456.7,37.7055,207.752,244.08,-32.5959,247.498,201.008,185.239,222.348,194.416
149,0,2.34795,436.96,1124.29,41.396,170.667,1138.81,-190.534,319.649,1193.51,-169.737,216.215,1193.6,-86.0018,491.871,839.908,-112.765,473.751,645.061,-243.43,472.757,533.824,-407.761,403.386,345.104,-480.791,357.452,367.377,-375.156,377.274,193.966,56.743,113.663,858.979,79.1411,154.425,669.648,48.8712,157.644,455.226,28.3426,207.634,243.167,-42.5357,247.138,201.009,175.507,221.932,194.165
150,0,3.90785,435.459,1123.55,42.5828,169.176,1138.02,-189.326,318.936,1192.42,-168.69,215.339,1192.94,-79.3077,491.978,838.593,-101.995,475.216,643.353,-234.078,473.647,535.25,-402.922,403.027,351.847,-473.925,355.605,377.088,-378.012,377.144,197.462,54.3499,111.75,857.169,76.9337,153.536,667.968,43.6429,157.436,453.902,19.2207,207.414,242.434,-52.1766,246.691,201.139,165.996,221.538,194
151,0,5.2928,434.007,1123,43.5395,167.678,1137.32,-188.279,318.243,1191.51,-167.836,214.5,1192.44,-72.495,492.095,837.607,-90.8398,476.635,642.025,-224.105,474.505,536.936,-397.138,402.654,358.754,-466.049,353.64,386.616,-379.188,377.328,201.533,51.4712,109.861,855.34,74.3206,152.663,666.371,38.3003,157.169,452.728,10.3298,207.124,241.866,-61.5344,246.202,201.366,156.687,221.183,193.881
152,0,6.49027,432.618,1122.64,44.2645,166.186,1136.71,-187.402,317.559,1190.81,-167.172,213.692,1192.1,-65.6236,492.214,836.98,-79.3909,477.972,641.13,-213.601,475.301,538.89,-390.459,402.293,365.7,-457.33,351.635,395.772,-378.515,377.859,206.109,48.286,108.089,853.574,71.3048,151.829,664.874,32.8252,156.858,451.7,1.64243,206.794,241.443,-70.6429,245.709,201.663,147.551,220.876,193.775
153,0,7.4938,431.307,1122.48,44.7598,164.713,1136.2,-186.697,316.877,1190.3,-166.695,212.909,1191.91,-58.7527,492.324,836.734,-67.7403,479.196,640.713,-202.659,476.011,541.107,-382.934,401.971,372.545,-447.944,349.675,404.367,-375.851,378.748,211.086,44.9595,106.508,851.951,67.891,151.051,663.489,27.1957,156.52,450.812,-6.87998,206.45,241.145,-79.5466,245.241,202.005,138.551,220.619,193.66
154,0,8.30291,430.084,1122.54,45.0308,163.271,1135.78,-186.166,316.19,1190.01,-166.398,212.147,1191.89,-51.9396,492.42,836.881,-55.9776,480.28,640.81,-191.374,476.61,543.573,-374.617,401.711,379.133,-438.054,347.843,412.211,-371.09,379.977,216.324,41.6237,105.168,850.53,64.0858,150.341,662.225,21.3893,156.169,450.058,-15.2815,206.116,240.953,-88.2946,244.823,202.373,129.648,220.41,193.524
155,0,8.92277,428.956,1122.8,45.0855,161.87,1135.45,-185.804,315.495,1189.93,-166.273,211.404,1192.02,-45.2372,492.501,837.427,-44.1872,481.206,641.443,-179.835,477.078,546.26,-365.554,401.534,385.306,-427.809,346.215,419.13,-364.172,381.501,221.658,38.3652,104.096,849.354,59.8973,149.705,661.088,15.3843,155.82,449.428,-23.6071,205.807,240.85,-96.936,244.469,202.754,120.808,220.242,193.361
156,0,9.36359,427.928,1123.27,44.9349,160.522,1135.21,-185.604,314.795,1190.05,-166.307,210.682,1192.3,-38.693,492.567,838.365,-32.447,481.96,642.623,-168.126,477.401,549.131,-355.793,401.456,390.908,-417.327,344.86,424.963,-355.09,383.252,226.907,35.2202,103.292,848.438,55.3355,149.147,660.081,9.16231,155.484,448.917,-31.899,205.535,240.822,-105.516,244.188,203.142,111.998,220.104,193.171
157,0,9.63993,427,1123.93,44.5918,159.234,1135.05,-185.558,314.092,1190.38,-166.489,209.981,1192.73,-32.3477,492.618,839.683,-20.8277,482.532,644.348,-156.324,477.569,552.134,-345.375,401.487,395.79,-406.692,343.831,429.574,-343.889,385.146,231.888,32.1772,102.736,847.773,50.4125,148.663,659.204,2.70929,155.17,448.517,-40.194,205.31,240.858,-114.073,243.98,203.539,103.193,219.989,192.96
158,0,9.76979,426.171,1124.77,44.0708,158.015,1134.98,-185.652,313.393,1190.91,-166.804,209.308,1193.29,-26.2344,492.66,841.36,-9.39228,482.92,646.602,-144.495,477.583,555.211,-334.339,401.635,399.818,-395.953,343.162,432.851,-330.667,387.092,236.427,29.1859,102.393,847.334,45.1425,148.25,658.456,-3.9836,154.885,448.224,-48.5226,205.135,240.952,-122.639,243.844,203.952,94.374,219.886,192.731
159,0,9.77372,425.437,1125.78,43.3874,156.869,1134.98,-185.872,312.709,1191.62,-167.237,208.667,1193.99,-20.3782,492.694,843.367,1.80259,483.125,649.357,-132.698,477.451,558.293,-322.721,401.899,402.878,-385.119,342.868,434.71,-315.571,389,240.37,26.1706,102.22,847.079,39.5422,147.901,657.831,-10.9196,154.635,448.032,-56.9078,205.011,241.1,-131.237,243.776,204.392,85.5265,219.789,192.49
160,0,9.67381,424.792,1126.93,42.5582,155.801,1135.05,-186.203,312.051,1192.51,-167.773,208.067,1194.8,-14.7964,492.724,845.673,12.7058,483.153,652.574,-120.98,477.186,561.307,-310.551,402.276,404.876,-374.163,342.941,435.091,-298.779,390.799,243.594,23.0452,102.169,846.961,33.6307,147.61,657.327,-18.0963,154.423,447.939,-65.3657,204.938,241.302,-139.884,243.77,204.872,76.6404,219.693,192.243
161,0,9.49278,424.226,1128.21,41.5998,154.814,1135.18,-186.627,311.431,1193.57,-168.397,207.515,1195.73,-9.4992,492.752,848.238,23.2697,483.011,656.2,-109.382,476.811,564.177,-297.856,402.757,405.748,-363.03,343.352,433.961,-280.496,392.439,246.014,19.7276,102.195,846.936,27.4295,147.368,656.938,-25.506,154.25,447.943,-73.906,204.913,241.56,-148.59,243.819,205.408,67.7086,219.595,191.994
162,0,9.25313,423.733,1129.57,40.5287,153.91,1135.37,-187.127,310.864,1194.77,-169.092,207.02,1196.77,-4.4908,492.777,851.023,33.4486,482.708,660.173,-97.9389,476.353,566.827,-284.661,403.33,405.452,-351.641,344.054,431.308,-260.934,393.899,247.588,16.1513,102.259,846.964,20.9621,147.168,656.661,-33.1363,154.116,448.045,-82.533,204.932,241.878,-157.36,243.919,206.014,58.7261,219.495,191.745
163,0,8.97643,423.302,1131.01,39.3611,153.087,1135.61,-187.685,310.364,1196.11,-169.845,206.592,1197.89,0.229088,492.799,853.985,43.1969,482.254,664.425,-86.6789,475.841,569.182,-270.982,403.981,403.976,-339.902,344.99,427.145,-240.298,395.188,248.311,12.2731,102.329,847.017,14.2539,147.004,656.491,-40.9705,154.019,448.244,-91.2466,204.992,242.261,-166.195,244.064,206.705,49.6891,219.393,191.497
164,0,8.6827,422.925,1132.5,38.1128,152.346,1135.89,-188.283,309.945,1197.57,-170.641,206.24,1199.1,4.66369,492.815,857.081,52.4674,481.661,668.879,-75.6282,475.306,571.178,-256.831,404.696,401.332,-327.71,346.093,421.503,-218.777,396.345,248.221,8.0765,102.386,847.081,7.33214,146.87,656.426,-48.9884,153.954,448.541,-100.043,205.085,242.716,-175.094,244.248,207.493,40.5942,219.29,191.25
165,0,8.39005,422.594,1134.01,36.7987,151.683,1136.21,-188.906,309.621,1199.13,-171.467,205.972,1200.37,8.81758,492.823,860.265,61.2111,480.939,673.452,-64.811,474.778,572.756,-242.213,405.462,397.559,-314.961,347.297,414.436,-196.535,397.429,247.386,3.57086,102.419,847.15,0.225216,146.76,656.463,-57.167,153.918,448.935,-108.917,205.206,243.25,-184.052,244.464,208.389,31.4385,219.189,191.006
166,0,8.11444,422.302,1135.52,35.433,151.096,1136.56,-189.535,309.402,1200.76,-172.311,205.798,1201.71,12.6953,492.818,863.495,69.3764,480.101,678.06,-54.2509,474.281,573.868,-227.128,406.268,392.719,-301.558,348.545,406.018,-173.703,398.507,245.9,-1.21231,102.427,847.233,-7.03709,146.668,656.6,-65.4809,153.906,449.428,-117.859,205.347,243.867,-193.065,244.704,209.399,22.2194,219.089,190.764
167,0,7.86962,422.042,1137.02,34.0292,150.582,1136.94,-190.156,309.299,1202.46,-173.162,205.723,1203.09,16.3002,492.798,866.728,76.9101,479.157,682.617,-43.9722,473.834,574.481,-211.567,407.106,386.895,-287.412,349.791,396.345,-150.383,399.648,243.876,-6.22519,102.415,847.341,-14.424,146.591,656.836,-73.9032,153.911,450.019,-126.861,205.497,244.574,-202.127,244.957,210.529,12.9344,218.989,190.524
168,0,7.66723,421.812,1138.48,32.6002,150.135,1137.33,-190.754,309.321,1204.19,-174.01,205.756,1204.51,19.6337,492.761,869.922,83.7585,478.119,687.036,-33.9997,473.451,574.574,-195.517,407.974,380.193,-272.45,351.007,385.538,-126.646,400.91,241.44,-11.41,102.398,847.49,-21.9037,146.523,657.169,-82.4057,153.926,450.705,-135.911,205.647,245.374,-211.233,245.21,211.782,3.58191,218.888,190.286
169,0,7.51708,421.605,1139.9,31.1587,149.75,1137.74,-191.316,309.473,1205.94,-174.845,205.9,1205.95,22.6948,492.708,873.037,89.8698,477.001,691.234,-24.3589,473.136,574.144,-178.962,408.871,372.735,-256.618,352.184,373.74,-102.544,402.327,238.72,-16.7051,102.389,847.698,-29.4434,146.462,657.595,-90.9596,153.946,451.485,-145.001,205.787,246.269,-220.375,245.448,213.16,-5.83912,218.783,190.048
170,0,7.42739,421.422,1141.26,29.7169,149.424,1138.15,-191.83,309.759,1207.68,-175.658,206.16,1207.38,25.4798,492.64,876.034,95.196,475.815,695.134,-15.076,472.886,573.198,-161.887,409.8,364.661,-239.88,353.331,361.118,-78.1106,403.906,235.849,-22.0496,102.407,847.975,-37.0096,146.403,658.111,-99.536,153.963,452.355,-154.117,205.904,247.262,-229.548,245.656,214.664,-15.3288,218.671,189.812
171,0,7.40528,421.26,1142.56,28.2871,149.149,1138.55,-192.283,310.18,1209.39,-176.441,206.538,1208.81,27.9827,492.561,878.872,99.6965,474.576,698.665,-6.17643,472.693,571.763,-144.28,410.762,356.125,-222.223,354.472,347.863,-53.3772,405.621,232.954,-27.3872,102.467,848.33,-44.5675,146.344,658.711,-108.106,153.973,453.309,-163.25,205.988,248.35,-238.745,245.816,216.293,-24.8862,218.546,189.576
172,0,7.45709,421.119,1143.78,26.8819,148.923,1138.95,-192.666,310.737,1211.06,-177.187,207.037,1210.2,30.1948,492.479,881.515,103.341,473.299,701.766,2.31545,472.543,569.873,-126.142,411.76,347.292,-203.663,355.641,334.185,-28.377,407.416,230.161,-32.6672,102.582,848.765,-52.0812,146.282,659.387,-116.642,153.969,454.34,-172.388,206.029,249.533,-247.96,245.915,218.047,-34.5097,218.407,189.34
173,0,7.58882,420.999,1144.93,25.514,148.738,1139.33,-192.967,311.426,1212.64,-177.886,207.655,1211.54,32.106,492.404,883.926,106.111,472.001,704.387,10.3777,472.417,567.576,-107.491,412.789,338.334,-184.239,356.871,320.31,-3.15573,409.209,227.591,-37.8457,102.763,849.275,-59.514,146.218,660.13,-125.116,153.949,455.443,-181.52,206.019,250.807,-257.187,245.938,219.923,-44.1968,218.25,189.104
174,0,7.80642,420.901,1146,24.197,148.592,1139.69,-193.179,312.242,1214.13,-178.532,208.393,1212.82,33.7044,492.345,886.068,108.007,470.698,706.491,17.9914,472.298,564.927,-88.3657,413.841,329.426,-164.024,358.19,306.472,22.2212,410.896,225.358,-42.8842,103.014,849.848,-66.8278,146.151,660.927,-133.502,153.909,456.606,-190.639,205.952,252.168,-266.42,245.875,221.922,-53.9446,218.074,188.866
175,0,8.11607,420.824,1147,22.9447,148.48,1140.02,-193.291,313.179,1215.5,-179.115,209.246,1214,34.9777,492.316,887.91,109.045,469.408,708.057,25.1418,472.165,561.989,-68.8351,414.898,320.737,-143.125,359.615,292.906,47.6626,412.368,223.568,-47.7494,103.336,850.468,-73.9837,146.083,661.765,-141.776,153.847,457.822,-199.734,205.824,253.613,-275.653,245.72,224.042,-63.75,217.879,188.627
176,0,8.52428,420.77,1147.91,21.7717,148.4,1140.31,-193.297,314.23,1216.73,-179.627,210.212,1215.07,35.9142,492.33,889.418,109.262,468.148,709.077,31.8183,472.002,558.824,-49.0009,415.933,312.427,-121.682,361.14,279.838,73.0468,413.513,222.313,-52.4109,103.727,851.117,-80.9419,146.018,662.627,-149.915,153.764,459.078,-208.799,205.633,255.136,-284.881,245.471,226.283,-73.6101,217.666,188.387
177,0,9.03793,420.738,1148.75,20.6931,148.349,1140.55,-193.189,315.384,1217.8,-180.059,211.285,1216.01,36.5039,492.397,890.568,108.714,466.933,709.559,38.0146,471.795,555.496,-29.0004,416.911,304.639,-99.8769,362.74,267.478,98.2194,414.233,221.67,-56.8408,104.179,851.772,-87.6622,145.962,663.496,-157.896,153.659,460.364,-217.83,205.383,256.734,-294.101,245.13,228.643,-83.522,217.438,188.148
178,0,9.66416,420.731,1149.5,19.7244,148.327,1140.74,-192.96,316.633,1218.7,-180.402,212.458,1216.79,36.7408,492.529,891.336,107.477,465.777,709.525,43.7284,471.531,552.066,-9.0073,417.791,297.489,-77.9257,364.367,256.004,122.992,414.449,221.686,-61.0122,104.684,852.408,-94.1043,145.919,664.35,-165.699,153.536,461.669,-226.822,205.075,258.403,-303.308,244.704,231.121,-93.4836,217.199,187.913
179,0,10.4101,420.748,1150.17,18.8809,148.334,1140.86,-192.606,317.965,1219.41,-180.646,213.724,1217.41,36.6247,492.731,891.708,105.647,464.693,709.012,48.9609,471.203,548.589,10.7709,418.525,291.065,-56.0819,365.952,245.562,147.147,414.11,222.378,-64.899,105.233,853.003,-100.228,145.898,665.171,-173.306,153.395,462.979,-235.773,204.714,260.138,-312.501,244.201,233.718,-103.493,216.95,187.684
180,0,11.2828,420.792,1150.75,18.1778,148.372,1140.92,-192.121,319.369,1219.91,-180.782,215.073,1217.84,36.1645,493.007,891.676,103.333,463.687,708.067,53.7155,470.806,545.113,30.0976,419.067,285.418,-34.6302,367.416,236.251,170.438,413.194,223.718,-68.4761,105.815,853.532,-105.996,145.904,665.934,-180.699,153.24,464.283,-244.682,204.306,261.938,-321.677,243.632,236.432,-113.549,216.696,187.464
181,0,12.2884,420.862,1151.24,17.6298,148.445,1140.89,-191.502,320.835,1220.2,-180.799,216.496,1218.07,35.3813,493.353,891.243,100.658,462.767,706.745,57.9976,470.338,541.677,48.715,419.372,280.559,-13.8802,368.675,228.126,192.602,411.714,225.633,-71.7188,106.422,853.973,-111.369,145.947,666.618,-187.859,153.073,465.569,-253.549,203.858,263.801,-330.834,243.008,239.265,-123.65,216.439,187.257
182,0,13.432,420.963,1151.63,17.2503,148.557,1140.77,-190.748,322.349,1220.27,-180.688,217.982,1218.08,34.3109,493.76,890.424,97.7538,461.931,705.11,61.8133,469.798,538.311,66.3538,419.405,276.464,5.84363,369.65,221.194,213.365,409.712,227.998,-74.6043,107.048,854.305,-116.315,146.03,667.199,-194.769,152.898,466.823,-262.372,203.375,265.724,-339.969,242.34,242.215,-133.795,216.181,187.064
183,0,14.7174,421.096,1151.92,17.0509,148.713,1140.56,-189.858,323.901,1220.12,-180.443,219.517,1217.88,33.0068,494.212,889.244,94.754,461.179,703.226,65.1696,469.189,535.038,82.7446,419.139,273.072,24.2138,370.277,215.414,232.456,407.257,230.645,-77.1115,107.689,854.509,-120.799,146.16,667.653,-201.409,152.716,468.033,-271.148,202.862,267.708,-349.079,241.635,245.285,-143.984,215.922,186.887
184,0,16.1462,421.265,1152.1,17.0413,148.921,1140.25,-188.833,325.479,1219.74,-180.054,221.091,1217.44,31.5416,494.686,887.74,91.7916,460.503,701.16,68.0742,468.512,531.869,97.6307,418.562,270.292,40.9137,370.511,210.709,249.621,404.44,233.36,-79.222,108.343,854.565,-124.793,146.337,667.957,-207.758,152.528,469.189,-279.872,202.323,269.753,-358.155,240.901,248.477,-154.215,215.661,186.724
185,0,17.7179,421.475,1152.17,17.2285,149.187,1139.82,-187.678,327.073,1219.15,-179.519,222.689,1216.78,30.0072,495.155,885.963,88.9932,459.895,698.976,70.5363,467.772,528.812,110.78,417.677,268.014,55.6526,370.337,206.968,264.634,401.365,235.91,-80.9205,109.01,854.459,-128.269,146.562,668.089,-213.794,152.336,470.28,-288.532,201.76,271.861,-367.187,240.14,251.797,-164.486,215.397,186.569
186,0,19.4291,421.729,1152.11,17.6162,149.521,1139.29,-186.397,328.67,1218.34,-178.832,224.299,1215.89,28.513,495.588,883.972,86.4742,459.344,696.733,72.5676,466.975,525.871,121.998,416.503,266.113,68.1806,369.767,204.061,277.312,398.141,238.049,-82.1948,109.691,854.175,-131.202,146.831,668.026,-219.49,152.139,471.296,-297.113,201.174,274.033,-376.154,239.353,255.252,-174.796,215.13,186.416
187,0,21.274,422.033,1151.94,18.2047,149.929,1138.63,-184.997,330.262,1217.34,-177.995,225.907,1214.78,27.1817,495.954,881.835,84.3343,458.837,694.483,74.1834,466.129,523.045,131.135,415.071,264.465,78.3028,368.839,201.847,287.526,394.88,239.549,-83.0362,110.389,853.7,-133.569,147.137,667.749,-224.815,151.936,472.23,-305.588,200.565,276.276,-385.031,238.539,258.855,-185.142,214.857,186.255
188,0,23.2439,422.393,1151.64,18.9906,150.42,1137.86,-183.49,331.838,1216.15,-177.008,227.5,1213.46,26.1427,496.222,879.626,82.6546,458.363,692.272,75.4039,465.246,520.333,138.099,413.425,262.956,85.8906,367.615,200.185,295.211,391.68,240.216,-83.4389,111.106,853.024,-135.348,147.469,667.24,-229.735,151.725,473.077,-313.924,199.933,278.596,-393.779,237.694,262.623,-195.523,214.578,186.074
189,0,25.3273,422.813,1151.23,19.9661,151,1136.98,-181.886,333.391,1214.79,-175.878,229.067,1211.94,25.5242,496.367,877.419,81.4943,457.913,690.136,76.2551,464.341,517.738,142.854,411.618,261.487,90.8902,366.172,198.947,300.368,388.63,239.914,-83.3998,111.844,852.137,-136.516,147.814,666.486,-234.213,151.501,473.833,-322.079,199.277,281.002,-402.35,236.816,266.58,-205.935,214.296,185.863
190,0,27.5104,423.299,1150.69,21.1196,151.675,1135.98,-180.198,334.912,1213.28,-174.612,230.597,1210.25,25.4434,496.372,875.288,80.8889,457.479,688.104,76.7685,463.432,515.263,145.427,409.706,259.986,93.3261,364.597,198.019,303.068,385.799,238.579,-82.9173,112.604,851.035,-137.051,148.155,665.475,-238.204,151.262,474.499,-329.997,198.599,283.509,-410.68,235.904,270.754,-216.376,214.014,185.612
191,0,29.7769,423.855,1150.05,22.4355,152.447,1134.88,-178.443,336.397,1211.64,-173.223,232.082,1208.4,25.9961,496.23,873.299,80.8497,457.058,686.195,76.981,462.541,512.915,145.902,407.75,258.41,93.3004,362.975,197.312,303.447,383.237,236.23,-81.9904,113.386,849.714,-136.928,148.474,664.202,-241.663,151.002,475.079,-337.616,197.898,286.133,-418.694,234.959,275.182,-226.838,213.737,185.318
192,0,32.1092,424.484,1149.3,23.8943,153.318,1133.68,-176.636,337.839,1209.91,-171.725,233.514,1206.41,27.2476,495.946,871.508,81.3631,456.65,684.421,76.9325,461.695,510.706,144.416,405.807,256.743,90.9862,361.387,196.759,301.701,380.976,232.968,-80.6183,114.187,848.178,-136.125,148.751,662.666,-244.542,150.716,475.582,-344.863,197.177,288.895,-426.301,233.986,279.905,-237.313,213.475,184.984
193,0,34.4881,425.188,1148.48,25.4732,154.288,1132.39,-174.796,339.236,1208.1,-170.138,234.888,1204.32,29.2248,495.536,869.958,82.3916,456.261,682.785,76.6633,460.92,508.646,141.152,403.93,254.996,86.6176,359.902,196.316,298.067,379.026,228.966,-78.7989,115.003,846.434,-134.614,148.965,660.873,-246.789,150.398,476.02,-351.659,196.441,291.822,-433.401,232.995,284.967,-247.787,213.239,184.625
194,0,36.8939,425.966,1147.58,27.1464,155.351,1131.04,-172.942,340.585,1206.24,-168.481,236.202,1202.14,31.9111,495.028,868.672,83.8756,455.899,681.286,76.2111,460.243,506.75,136.327,402.164,253.203,80.4746,358.571,195.956,292.817,377.383,224.451,-76.529,115.829,844.496,-132.372,149.098,658.836,-248.356,150.041,476.409,-357.92,195.695,294.942,-439.884,232.003,290.414,-258.239,213.04,184.269
195,0,39.3062,426.818,1146.64,28.8858,156.502,1129.63,-171.093,341.887,1204.36,-166.777,237.456,1199.91,35.2452,494.461,867.659,85.7355,455.579,679.915,75.6067,459.691,505.027,130.179,400.55,251.411,72.8661,357.431,195.67,286.234,376.029,219.681,-73.8048,116.655,842.388,-129.375,149.132,656.575,-249.196,149.64,476.772,-363.559,194.945,298.284,-445.634,231.028,296.288,-268.636,212.89,183.957
196,0,41.7054,427.738,1145.67,30.662,157.732,1128.18,-169.267,343.143,1202.49,-165.052,238.654,1197.65,39.1226,493.878,866.905,87.875,455.314,678.659,74.8707,459.283,503.484,122.957,399.116,249.672,64.1113,356.5,195.455,278.599,374.937,214.92,-70.6226,117.47,840.138,-125.607,149.05,654.119,-249.265,149.187,477.133,-368.493,194.2,301.88,-450.538,230.097,302.627,-278.932,212.799,183.745
197,0,44.072,428.723,1144.7,32.4444,159.029,1126.72,-167.485,344.356,1200.65,-163.332,239.8,1195.4,43.4016,493.328,866.379,90.1844,455.123,677.499,74.0109,459.037,502.123,114.905,397.881,248.041,54.5228,355.781,195.313,270.179,374.074,210.406,-66.9808,118.26,837.785,-121.053,148.841,651.504,-248.528,148.679,477.519,-372.643,193.469,305.757,-454.487,229.236,309.457,-289.064,212.775,183.7
198,0,46.3876,429.763,1143.75,34.2028,160.379,1125.27,-165.765,345.529,1198.87,-161.642,240.901,1193.18,47.9118,492.86,866.033,92.5448,455.023,676.416,73.02,458.96,500.939,106.255,396.854,246.562,44.3902,355.263,195.248,261.211,373.405,206.336,-62.8825,119.011,835.375,-115.713,148.498,648.775,-246.956,148.11,477.961,-375.937,192.76,309.94,-457.386,228.477,316.785,-298.948,212.816,183.9
199,0,48.6348,430.85,1142.84,35.9075,161.767,1123.84,-164.124,346.668,1197.17,-160.011,241.966,1191.02,52.4652,492.517,865.809,94.8332,455.03,675.387,71.8762,459.054,499.918,97.2149,396.034,245.27,33.968,354.923,195.259,251.896,372.894,202.846,-58.3384,119.706,832.958,-109.594,148.019,645.982,-244.532,147.477,478.489,-378.316,192.081,314.446,-459.156,227.847,324.603,-308.477,212.917,184.425
200,0,50.7973,431.972,1142,37.5307,163.175,1122.47,-162.58,347.778,1195.56,-158.462,243.004,1188.95,56.8679,492.336,865.64,96.9268,455.157,674.388,70.5441,459.309,499.041,87.9638,395.413,244.184,23.4671,354.734,195.344,242.401,372.507,200.007,-53.3691,120.329,830.59,-102.719,147.407,643.182,-241.251,146.78,479.133,-379.732,191.441,319.279,-459.743,227.374,332.874,-317.519,213.061,185.353
201,0,52.86,433.119,1141.24,39.0463,164.586,1121.18,-161.146,348.865,1194.09,-157.021,244.026,1186.99,60.9324,492.345,865.458,98.7081,455.414,673.397,68.9782,459.711,498.284,78.6466,394.973,243.308,13.0509,354.661,195.494,232.848,372.215,197.825,-48.008,120.866,828.329,-95.1241,146.67,640.438,-237.119,146.018,479.922,-380.154,190.844,324.433,-459.117,227.08,341.541,-325.922,213.222,186.751
202,0,54.8085,434.278,1140.59,40.4313,165.983,1119.99,-159.838,349.933,1192.75,-155.71,245.041,1185.16,64.4892,492.56,865.203,100.07,455.807,672.395,67.1265,460.238,497.62,69.3737,394.691,242.635,2.83431,354.67,195.701,223.33,371.991,196.253,-42.3019,121.304,826.233,-86.8592,145.823,637.815,-232.156,145.197,480.88,-379.565,190.297,329.886,-457.281,226.979,350.515,-333.508,213.364,188.671
203,0,56.6294,435.437,1140.05,41.666,167.348,1118.91,-158.667,350.989,1191.56,-154.548,246.057,1183.48,67.3962,492.984,864.823,100.92,456.334,671.366,64.9361,460.862,497.021,60.2219,394.539,242.144,-7.1123,354.728,195.952,213.903,371.813,195.205,-36.3117,121.637,824.355,-77.9885,144.885,635.378,-226.393,144.323,482.027,-377.963,189.801,335.599,-454.264,227.079,359.685,-340.086,213.443,191.14
204,0,58.3099,436.583,1139.65,42.734,168.666,1117.98,-157.643,352.035,1190.54,-153.551,247.082,1181.97,69.546,493.61,864.285,101.182,456.99,670.301,62.3579,461.554,496.461,51.2371,394.488,241.809,-16.7579,354.805,196.236,204.602,371.665,194.569,-30.1104,121.858,822.745,-68.5877,143.88,633.193,-219.875,143.406,483.377,-375.359,189.356,341.517,-450.126,227.374,368.917,-345.453,213.411,194.156
205,0,59.8374,437.705,1139.38,43.6227,169.923,1117.21,-156.774,353.073,1189.7,-152.732,248.119,1180.65,70.8699,494.416,863.574,100.804,457.76,669.198,59.351,462.283,495.92,42.4389,394.51,241.602,-26.1031,354.877,196.544,195.438,371.532,194.226,-23.7806,121.969,821.445,-58.7411,142.834,631.32,-212.655,142.458,484.937,-371.778,188.963,347.568,-444.948,227.851,378.058,-349.405,213.22,197.685
206,0,61.1994,438.793,1139.25,44.3234,171.107,1116.61,-156.068,354.102,1189.04,-152.101,249.169,1179.54,71.3398,495.371,862.694,99.7532,458.627,668.062,55.8868,463.021,495.384,33.8258,394.578,241.493,-35.1725,354.928,196.87,186.411,371.407,194.066,-17.4106,121.974,820.488,-48.5387,141.777,629.818,-204.795,141.495,486.705,-367.254,188.616,353.664,-438.832,228.484,386.943,-351.746,212.828,201.662
207,0,62.3838,439.837,1139.27,44.8311,172.206,1116.21,-155.53,355.122,1188.58,-151.663,250.231,1178.63,70.9655,496.437,861.672,98.0196,459.567,666.904,51.9507,463.741,494.848,25.3805,394.669,241.458,-44.006,354.946,197.212,177.51,371.282,193.992,-11.0887,121.882,819.896,-38.0727,140.74,628.735,-196.363,140.536,488.674,-361.83,188.312,359.704,-431.894,229.239,395.4,-352.297,212.201,205.994
208,0,63.3781,440.831,1139.41,45.1442,173.216,1116,-155.162,356.126,1188.3,-151.42,251.3,1177.95,69.7908,497.57,860.547,95.6148,460.553,665.744,47.5431,464.421,494.313,17.0755,394.765,241.478,-52.6522,354.928,197.574,168.716,371.153,193.932,-4.89916,121.703,819.684,-27.434,139.752,628.112,-187.432,139.599,490.825,-355.551,188.043,365.577,-424.254,230.072,403.259,-350.909,211.325,210.562
209,0,64.1702,441.768,1139.68,45.2649,174.129,1116.01,-154.965,357.108,1188.22,-151.37,252.365,1177.5,67.8863,498.724,859.373,92.5685,461.556,664.605,42.6788,465.044,493.789,8.87743,394.855,241.541,-61.1616,354.877,197.962,160.008,371.02,193.84,1.08413,121.45,819.854,-16.7096,138.841,627.98,-178.075,138.705,493.133,-348.468,187.804,371.166,-416.032,230.933,410.354,-347.47,210.203,215.23
210,0,64.7484,442.646,1140.07,45.1981,174.946,1116.23,-154.941,358.06,1188.34,-151.508,253.416,1177.28,65.3411,499.853,858.207,88.9259,462.546,663.514,37.3844,465.599,493.29,0.751057,394.93,241.644,-69.5824,354.8,198.387,151.363,370.881,193.69,6.80127,121.139,820.402,-5.98028,138.032,628.359,-168.364,137.875,495.565,-340.632,187.585,376.351,-407.337,231.772,416.535,-341.91,208.86,219.855
211,0,65.1015,443.461,1140.55,44.9516,175.665,1116.68,-155.086,358.97,1188.65,-151.826,254.438,1177.31,62.2542,500.916,857.108,84.7429,463.494,662.5,31.696,466.078,492.838,-7.33757,394.989,241.789,-77.9568,354.71,198.864,142.758,370.737,193.478,12.2099,120.781,821.316,4.68071,137.347,629.26,-158.37,137.127,498.083,-332.093,187.379,381.013,-398.266,232.536,421.664,-334.21,207.342,224.294
212,0,65.2197,444.213,1141.11,44.5357,176.289,1117.34,-155.398,359.826,1189.15,-152.313,255.414,1177.57,58.726,501.879,856.131,80.0824,464.372,661.589,25.6554,466.479,492.455,-15.4191,395.033,241.982,-86.319,354.62,199.406,134.171,370.591,193.213,17.2871,120.39,822.578,15.2077,136.803,630.681,-148.159,136.479,500.642,-322.897,187.178,385.038,-388.896,233.177,425.628,-324.399,205.711,228.415
213,0,65.0948,444.902,1141.73,43.9628,176.823,1118.22,-155.871,360.616,1189.83,-152.956,256.328,1178.08,54.8501,502.715,855.32,75.009,465.159,660.808,19.3065,466.802,492.163,-23.5197,395.068,242.237,-94.6951,354.543,200.028,125.581,370.442,192.912,22.0287,119.978,824.168,25.5424,136.411,632.61,-137.79,135.945,503.191,-313.086,186.976,388.326,-379.279,233.658,428.334,-312.557,204.041,232.1
214,0,64.7207,445.53,1142.39,43.2469,177.271,1119.32,-156.5,361.326,1190.69,-153.74,257.16,1178.83,50.708,503.407,854.708,69.586,465.836,660.176,12.6925,467.051,491.984,-31.6604,395.098,242.565,-103.103,354.494,200.743,116.97,370.293,192.595,26.4485,119.555,826.066,35.6323,136.178,635.027,-127.317,135.535,505.681,-302.697,186.768,390.786,-369.444,233.949,429.715,-298.802,202.408,235.258
215,0,64.0943,446.099,1143.08,42.4036,177.641,1120.62,-157.275,361.943,1191.72,-154.649,257.893,1179.8,46.3649,503.946,854.317,63.871,466.389,659.709,5.85268,467.231,491.935,-39.8568,395.13,242.98,-111.552,354.483,201.56,108.322,370.147,192.281,30.5739,119.131,828.25,45.4295,136.105,637.9,-116.786,135.258,508.056,-291.759,186.551,392.344,-359.395,234.036,429.726,-283.293,200.884,237.822
216,0,63.2156,446.612,1143.77,41.4495,177.94,1122.12,-158.189,362.455,1192.91,-155.666,258.512,1181.01,41.8678,504.333,854.152,57.9143,466.813,659.416,-1.17902,467.349,492.031,-48.12,395.17,243.493,-120.047,354.518,202.487,99.6223,370.005,191.985,34.4424,118.712,830.702,54.8888,136.189,641.192,-106.236,135.116,510.265,-280.295,186.324,392.948,-349.108,233.919,428.348,-266.208,199.53,239.755
217,0,62.0883,447.072,1144.44,40.4022,178.174,1123.81,-159.231,362.852,1194.25,-156.773,259.002,1182.42,37.2456,504.575,854.21,51.7569,467.104,659.3,-8.37514,467.411,492.28,-56.4563,395.222,244.111,-128.589,354.601,203.528,90.8616,369.868,191.715,38.0955,118.305,833.403,63.9659,136.424,644.857,-95.6982,135.109,512.257,-268.319,186.091,392.561,-338.542,233.613,425.582,-247.744,198.388,241.048
218,0,60.7199,447.481,1145.09,39.2799,178.352,1125.66,-160.388,363.124,1195.73,-157.953,259.351,1184.04,32.5114,504.683,854.478,45.43,467.265,659.358,-15.7148,467.422,492.684,-64.8684,395.286,244.839,-137.175,354.733,204.68,82.0323,369.739,191.476,41.5736,117.916,836.337,72.6162,136.8,648.844,-85.1982,135.23,513.986,-255.838,185.857,391.174,-327.636,233.145,421.455,-228.099,197.481,241.716
219,0,59.122,447.842,1145.7,38.101,178.48,1127.67,-161.649,363.264,1197.33,-159.187,259.552,1185.85,27.6653,504.673,854.933,38.9557,467.304,659.583,-23.1833,467.386,493.241,-73.3559,395.363,245.675,-145.802,354.909,205.94,73.1301,369.617,191.265,44.9115,117.549,839.488,80.7939,137.305,653.094,-74.7556,135.474,515.411,-242.852,185.629,388.794,-316.314,232.554,416.012,-207.465,196.809,241.799
220,0,57.3103,448.157,1146.26,36.8844,178.565,1129.82,-162.999,363.267,1199.05,-160.46,259.598,1187.82,22.6987,504.56,855.551,32.3477,467.229,659.961,-30.7707,467.308,493.945,-81.9155,395.448,246.616,-154.467,355.12,207.303,64.1541,369.503,191.076,48.1337,117.208,842.839,88.4521,137.926,657.546,-64.3857,135.829,516.5,-229.351,185.417,385.455,-304.496,231.885,409.32,-186.022,196.353,241.352
221,0,55.3041,448.428,1146.77,35.6489,178.612,1132.08,-164.425,363.132,1200.86,-161.753,259.488,1189.93,17.5987,504.359,856.303,25.6135,467.053,660.479,-38.4706,467.188,494.784,-90.542,395.537,247.653,-163.168,355.354,208.758,55.1065,369.394,190.903,51.2521,116.898,846.369,95.5428,138.648,662.133,-54.0998,136.283,517.229,-215.326,185.231,381.209,-292.096,231.185,401.467,-163.926,196.08,240.447
222,0,53.1259,448.655,1147.23,34.4128,178.626,1134.44,-165.909,362.858,1202.74,-163.052,259.224,1192.17,12.3525,504.082,857.162,18.7562,466.788,661.118,-46.2785,467.028,495.744,-99.2288,395.62,248.773,-171.903,355.596,210.299,45.9916,369.288,190.736,54.265,116.624,850.052,102.018,139.456,666.786,-43.9076,136.822,517.584,-200.76,185.083,376.132,-279.032,230.501,392.559,-141.312,195.951,239.163
223,0,50.8014,448.841,1147.64,33.1946,178.612,1136.86,-167.438,362.448,1204.68,-164.342,258.81,1194.5,6.95117,503.737,858.1,11.7767,466.448,661.859,-54.1904,466.828,496.809,-107.968,395.691,249.963,-180.675,355.831,211.915,36.8158,369.18,190.568,57.1567,116.39,853.856,107.832,140.337,671.434,-33.8177,137.431,517.562,-185.639,184.983,370.314,-265.231,229.873,382.719,-118.292,195.921,237.584
224,0,48.3582,448.986,1148.01,32.0117,178.573,1139.34,-168.994,361.905,1206.67,-165.609,258.254,1196.9,1.39304,503.33,859.093,4.67613,466.045,662.685,-62.2015,466.587,497.962,-116.751,395.739,251.209,-189.485,356.042,213.6,27.5861,369.065,190.396,59.8997,116.2,857.741,112.942,141.276,676.006,-23.8392,138.098,517.172,-169.951,184.939,363.867,-250.635,229.332,372.09,-94.9556,195.955,235.798
225,0,45.8256,449.09,1148.34,30.8813,178.512,1141.83,-170.561,361.236,1208.67,-166.838,257.565,1199.34,-4.31451,502.864,860.118,-2.5424,465.592,663.578,-70.305,466.304,499.185,-125.571,395.755,252.496,-198.336,356.214,215.346,18.3092,368.938,190.215,62.4575,116.061,861.66,117.313,142.259,680.432,-13.9827,138.806,516.433,-153.69,184.96,356.915,-235.201,228.901,360.83,-71.3757,196.026,233.891
226,0,43.2338,449.154,1148.63,29.8195,178.431,1144.32,-172.122,360.446,1210.67,-168.018,256.754,1201.79,-10.1539,502.338,861.156,-9.87229,465.1,664.521,-78.4919,465.977,500.462,-134.419,395.73,253.813,-207.231,356.331,217.151,8.9904,368.792,190.026,64.7873,115.976,865.557,120.914,143.272,684.643,-4.2618,139.543,515.374,-136.864,185.049,349.592,-218.913,228.588,349.111,-47.6145,196.119,231.947
227,0,40.6133,449.179,1148.91,28.8416,178.331,1146.78,-173.661,359.544,1212.65,-169.137,255.832,1204.21,-16.0975,501.75,862.192,-17.3024,464.576,665.499,-86.7506,465.607,501.779,-143.289,395.657,255.149,-216.171,356.381,219.01,-0.367556,368.623,189.831,66.8448,115.946,869.371,123.731,144.301,688.578,5.30665,140.297,514.035,-119.495,185.209,342.041,-201.781,228.395,337.115,-23.7302,196.236,230.048
228,0,37.9939,449.166,1149.17,27.9618,178.214,1149.18,-175.161,358.538,1214.58,-170.182,254.813,1206.57,-22.1085,501.098,863.212,-24.8164,464.03,666.499,-95.0668,465.194,503.123,-152.177,395.529,256.498,-225.156,356.352,220.923,-9.76488,368.427,189.632,68.5872,115.969,873.037,125.757,145.332,692.178,14.7013,141.056,512.46,-101.625,185.44,334.41,-183.842,228.312,325.03,0.216618,196.39,228.266
229,0,35.4047,449.116,1149.42,27.1931,178.081,1151.5,-176.607,357.437,1216.43,-171.144,253.708,1208.85,-28.143,500.382,864.206,-32.3929,463.467,667.51,-103.424,464.739,504.484,-161.078,395.342,257.857,-234.184,356.238,222.889,-19.2051,368.2,189.433,69.977,116.037,876.487,127.004,146.352,695.398,23.8962,141.813,510.699,-83.3165,185.74,326.844,-165.171,228.326,313.046,24.1559,196.605,226.668
230,0,32.8735,449.032,1149.67,26.5475,177.934,1153.71,-177.982,356.248,1218.2,-172.012,252.529,1211.01,-34.1521,499.604,865.164,-40.0056,462.893,668.523,-111.804,464.246,505.853,-169.993,395.093,259.226,-243.25,356.033,224.909,-28.6948,367.943,189.237,70.9848,116.136,879.655,127.498,147.346,698.198,32.8602,142.559,508.805,-64.6611,186.109,319.482,-145.872,228.424,301.35,48.0026,196.911,225.308
231,0,30.4264,448.914,1149.91,26.0355,177.771,1155.78,-179.274,354.98,1219.85,-172.775,251.286,1213.02,-40.0847,498.766,866.079,-47.6241,462.312,669.528,-120.186,463.72,507.224,-178.921,394.782,260.608,-252.349,355.736,226.984,-38.2424,367.656,189.047,71.5917,116.246,882.477,127.283,148.302,700.55,41.557,143.289,506.829,-45.776,186.544,312.452,-126.087,228.592,290.116,71.6522,197.34,224.228
232,0,28.0874,448.766,1150.16,25.6663,177.595,1157.69,-180.466,353.64,1221.37,-173.424,249.988,1214.85,-45.8895,497.879,866.946,-55.2147,461.728,670.519,-128.55,463.166,508.593,-187.864,394.414,262.011,-261.473,355.352,229.115,-47.8575,367.342,188.864,71.7909,116.339,884.897,126.421,149.209,702.442,49.946,144.001,504.819,-26.8065,187.043,305.866,-105.99,228.822,279.504,94.9779,197.923,223.451
233,0,25.8789,448.59,1150.39,25.4477,177.405,1159.42,-181.547,352.236,1222.73,-173.951,248.644,1216.49,-51.5178,496.951,867.759,-62.7413,461.144,671.488,-136.874,462.592,509.958,-196.824,393.993,263.439,-270.612,354.89,231.301,-57.549,367.003,188.688,71.589,116.384,886.866,124.988,150.057,703.868,57.9817,144.693,502.818,-7.92478,187.607,299.814,-85.7874,229.111,269.649,117.83,198.682,222.98
234,0,23.821,448.388,1150.62,25.3862,177.201,1160.94,-182.505,350.775,1223.91,-174.347,247.26,1217.9,-56.9248,495.997,868.512,-70.1665,460.562,672.428,-145.136,462.007,511.315,-205.804,393.53,264.902,-279.761,354.364,233.544,-67.324,366.645,188.518,71.0061,116.348,888.349,123.078,150.838,704.84,65.6153,145.369,500.859,10.6727,188.239,294.36,-65.7157,229.467,260.658,140.035,199.634,222.795
235,0,21.9321,448.163,1150.82,25.4869,176.982,1162.25,-183.328,349.262,1224.9,-174.606,245.842,1219.08,-62.0714,495.032,869.199,-77.4521,459.984,673.331,-153.313,461.42,512.664,-214.807,393.037,266.404,-288.912,353.794,235.843,-77.1864,366.271,188.354,70.0768,116.202,889.324,120.795,151.55,705.376,72.7955,146.031,498.968,28.7695,188.943,289.543,-46.0341,229.901,252.607,161.402,200.785,222.851
236,0,20.2283,447.914,1150.99,25.7532,176.747,1163.32,-184.007,347.706,1225.67,-174.72,244.395,1219.99,-66.9241,494.072,869.814,-84.5597,459.413,674.19,-161.381,460.843,514.001,-223.833,392.532,267.951,-298.062,353.205,238.198,-87.1368,365.888,188.193,68.8501,115.923,889.783,118.25,152.192,705.506,79.4694,146.687,497.159,46.1349,189.724,285.37,-27.0196,230.433,245.533,181.722,202.134,223.08
237,0,18.724,447.644,1151.12,26.1872,176.496,1164.15,-184.535,346.113,1226.23,-174.686,242.923,1220.64,-71.4559,493.132,870.351,-91.4511,458.849,674.993,-169.314,460.285,515.323,-232.881,392.034,269.544,-307.209,352.626,240.607,-97.1718,365.501,188.035,67.3893,115.5,889.739,115.56,152.77,705.267,85.5841,147.345,495.434,62.5306,190.59,281.82,-8.95869,231.083,239.438,200.78,203.669,223.392
238,0,17.4313,447.352,1151.19,26.7894,176.225,1164.72,-184.905,344.491,1226.55,-174.499,241.431,1221.02,-75.6452,492.225,870.799,-98.0878,458.294,675.728,-177.087,459.756,516.625,-241.949,391.563,271.184,-316.355,352.092,243.069,-107.284,365.116,187.879,65.7718,114.94,889.218,112.84,153.29,704.703,91.0883,148.014,493.788,77.7192,191.55,278.846,7.86189,231.875,234.289,218.353,205.374,223.684
239,0,16.3605,447.037,1151.18,27.5587,175.932,1165.04,-185.113,342.848,1226.63,-174.159,239.923,1221.12,-79.4756,491.362,871.151,-104.431,457.75,676.383,-184.67,459.264,517.902,-251.032,391.143,272.868,-325.504,351.635,245.584,-117.466,364.741,187.726,64.0881,114.266,888.268,110.198,153.766,703.856,95.9342,148.706,492.205,91.4733,192.611,276.376,23.1657,232.83,230.02,234.23,207.224,223.845
240,0,15.5195,446.696,1151.08,28.4922,175.613,1165.1,-185.156,341.192,1226.46,-173.666,238.403,1220.94,-82.9342,490.548,871.395,-110.441,457.218,676.94,-192.031,458.817,519.144,-260.122,390.795,274.592,-334.661,351.29,248.152,-127.704,364.382,187.577,62.4399,113.521,886.95,107.731,154.211,702.771,100.079,149.43,490.66,103.584,193.778,274.324,36.6976,233.961,226.538,248.211,209.19,223.77
241,0,14.9136,446.326,1150.88,29.5852,175.265,1164.91,-185.033,339.534,1226.06,-173.023,236.877,1220.5,-86.0112,489.788,871.518,-116.076,456.699,677.381,-199.135,458.419,520.342,-269.206,390.54,276.349,-343.831,351.088,250.776,-137.989,364.045,187.434,60.9369,112.764,885.339,105.52,154.64,701.492,103.486,150.196,489.128,113.871,195.056,272.591,48.2348,235.275,223.731,260.121,211.24,223.365
242,0,14.5456,445.921,1150.56,30.8311,174.882,1164.47,-184.745,337.883,1225.41,-172.235,235.351,1219.8,-88.6979,489.078,871.507,-121.293,456.196,677.687,-205.941,458.073,521.486,-278.267,390.393,278.134,-353.014,351.053,253.459,-148.31,363.737,187.297,59.6914,112.065,883.519,103.624,155.069,700.054,106.129,151.012,487.578,122.192,196.444,271.074,57.5978,236.771,221.473,269.819,213.337,222.562
243,0,14.415,445.475,1150.11,32.2211,174.46,1163.81,-184.298,336.251,1224.54,-171.309,233.83,1218.86,-90.9858,488.416,871.346,-126.045,455.712,677.834,-212.407,457.781,522.563,-287.283,390.368,279.943,-362.206,351.2,256.209,-158.659,363.462,187.167,58.8113,111.498,881.576,102.078,155.509,698.491,107.989,151.882,485.98,128.445,197.935,269.675,64.6594,238.435,219.636,277.206,215.444,221.327
244,0,14.5182,444.983,1149.52,33.7445,173.993,1162.93,-183.697,334.649,1223.45,-170.255,232.323,1217.7,-92.8661,487.792,871.019,-130.283,455.254,677.8,-218.484,457.541,523.562,-296.224,390.47,281.774,-371.393,351.536,259.04,-169.03,363.225,187.042,58.3911,111.134,879.593,100.895,155.968,696.826,109.062,152.806,484.309,132.582,199.519,268.305,69.3523,240.241,218.096,282.234,217.521,219.662
245,0,14.8478,444.435,1148.79,35.3881,173.476,1161.85,-182.951,333.088,1222.15,-169.086,230.837,1216.35,-94.3283,487.197,870.511,-133.952,454.826,677.562,-224.121,457.351,524.47,-305.051,390.699,283.628,-380.549,352.054,261.972,-179.42,363.025,186.918,58.5013,111.027,877.644,100.061,156.449,695.079,109.353,153.779,482.544,134.605,201.177,266.892,71.6735,242.158,216.742,284.91,219.53,217.606
246,0,15.3929,443.826,1147.91,37.1365,172.906,1160.6,-182.07,331.58,1220.67,-167.815,229.378,1214.83,-95.3603,486.621,869.806,-136.999,454.439,677.097,-229.262,457.207,525.28,-313.717,391.046,285.513,-389.632,352.737,265.03,-189.827,362.859,186.788,59.1785,111.212,875.787,99.54,156.948,693.263,108.879,154.794,480.673,134.572,202.887,265.384,71.6854,244.14,215.48,285.299,221.432,215.236
247,0,16.1383,443.148,1146.88,38.9719,172.276,1159.21,-181.068,330.135,1219.03,-166.461,227.956,1213.18,-95.948,486.054,868.89,-139.368,454.102,676.386,-233.85,457.108,525.982,-322.163,391.496,287.439,-398.582,353.553,268.249,-200.251,362.72,186.643,60.4155,111.69,874.058,99.2748,157.454,691.387,107.67,155.833,478.691,132.59,204.617,263.748,69.5138,246.141,214.239,283.523,223.193,212.652
248,0,17.0655,442.395,1145.71,40.8744,171.584,1157.7,-179.962,328.762,1217.26,-165.04,226.577,1211.43,-96.0761,485.488,867.755,-141.003,453.831,675.413,-237.824,457.051,526.573,-330.319,392.03,289.425,-407.321,354.464,271.671,-210.694,362.596,186.472,62.1557,112.434,872.474,99.1934,157.948,689.456,105.765,156.879,476.603,128.813,206.335,261.977,65.3409,248.107,212.972,279.758,224.784,209.971
249,0,18.1521,441.562,1144.4,42.8217,170.827,1156.1,-178.768,327.469,1215.38,-163.574,225.246,1209.61,-95.7281,484.919,866.394,-141.853,453.638,674.168,-241.127,457.034,527.052,-338.108,392.623,291.493,-415.751,355.42,275.346,-221.152,362.472,186.267,64.2907,113.378,871.024,99.2123,158.407,687.476,103.214,157.905,474.423,123.435,208.001,260.081,59.3962,249.986,211.656,274.223,226.179,207.313
250,0,19.3726,440.647,1142.98,44.7898,170.003,1154.45,-177.505,326.262,1213.42,-162.083,223.97,1207.76,-94.8883,484.345,864.811,-141.87,453.541,672.646,-243.699,457.061,527.423,-345.44,393.245,293.673,-423.76,356.371,279.331,-231.619,362.327,186.022,66.6646,114.431,869.682,99.2424,158.803,685.453,100.07,158.883,472.174,116.677,209.576,258.089,51.943,251.728,210.293,267.175,227.363,204.788
251,0,20.6987,439.648,1141.44,46.7532,169.111,1152.76,-176.196,325.143,1211.42,-160.589,222.752,1205.92,-93.5428,483.769,863.013,-141.017,453.554,670.854,-245.488,457.133,527.695,-352.222,393.87,295.999,-431.221,357.264,283.684,-242.08,362.139,185.741,69.0841,115.482,868.403,99.1934,159.105,683.395,96.3929,159.785,469.883,108.777,211.023,256.044,43.2646,253.288,208.901,258.886,228.325,202.489
252,0,22.1002,438.567,1139.83,48.685,168.152,1151.08,-174.862,324.115,1209.39,-159.116,221.594,1204.12,-91.6811,483.197,861.019,-139.266,453.693,668.804,-246.444,457.259,527.882,-358.358,394.471,298.51,-438.002,358.049,288.465,-252.509,361.884,185.438,71.3346,116.407,867.138,98.9788,159.283,681.314,92.2413,160.578,467.585,99.9796,212.304,253.993,33.6482,254.629,207.512,249.638,229.066,200.48
253,0,23.5457,437.407,1138.15,50.5577,167.128,1149.43,-173.527,323.174,1207.38,-157.685,220.496,1202.4,-89.2989,482.641,858.856,-136.603,453.97,666.522,-246.529,457.447,528.002,-363.756,395.026,301.248,-443.969,358.685,293.731,-262.865,361.544,185.14,73.1999,117.087,865.837,98.519,159.308,679.226,87.6728,161.233,465.313,90.5203,213.39,251.989,23.3707,255.724,206.168,239.7,229.591,198.795
254,0,25.0034,436.176,1136.44,52.3436,166.042,1147.83,-172.212,322.318,1205.42,-156.319,219.458,1200.79,-86.3991,482.11,856.559,-133.027,454.393,664.043,-245.71,457.708,528.077,-368.33,395.517,304.256,-448.995,359.138,299.529,-273.091,361.104,184.894,74.4849,117.419,864.461,97.7436,159.156,677.152,82.7399,161.725,463.104,80.619,214.259,250.081,12.685,256.556,204.912,229.323,229.915,197.44
255,0,26.4422,434.881,1134.72,54.0157,164.897,1146.31,-170.942,321.538,1203.52,-155.039,218.476,1199.31,-82.9943,481.62,854.172,-128.555,454.965,661.411,-243.967,458.052,528.134,-372.005,395.934,307.576,-452.969,359.389,305.893,-283.106,360.56,184.762,75.0353,117.327,862.989,96.5932,158.81,675.112,77.4884,162.033,460.992,70.4694,214.895,248.311,1.81067,257.119,203.784,218.723,230.057,196.394
256,0,27.8323,433.535,1133.02,55.5477,163.698,1144.89,-169.739,320.827,1201.72,-153.865,217.548,1197.99,-79.1081,481.183,851.746,-123.218,455.683,658.68,-241.292,458.491,528.2,-374.725,396.274,311.246,-455.801,359.428,312.84,-292.808,359.923,184.824,74.7548,116.768,861.418,95.0191,158.259,673.13,71.9557,162.141,459.005,60.2331,215.296,246.713,-9.07385,257.417,202.819,208.078,230.041,195.617
257,0,29.1465,432.149,1131.38,56.9156,162.451,1143.58,-168.624,320.173,1200.05,-152.815,216.667,1196.84,-74.7758,480.808,849.338,-117.062,456.537,655.913,-237.691,459.033,528.306,-376.451,396.54,315.298,-457.428,359.259,320.362,-302.072,359.22,185.172,73.6133,115.739,859.771,92.9828,157.501,671.231,66.17,162.042,457.168,50.0365,215.467,245.31,-19.8338,257.465,202.038,197.521,229.896,195.055
258,0,30.3606,430.738,1129.82,58.0974,161.16,1142.4,-167.617,319.566,1198.51,-151.906,215.828,1195.88,-70.0443,480.504,847.006,-110.149,457.511,653.178,-233.181,459.684,528.484,-377.168,396.741,319.757,-457.821,358.894,328.427,-310.748,358.493,185.902,71.6472,114.273,858.094,90.4555,156.543,669.434,60.1505,161.737,455.5,39.9698,215.424,244.112,-30.3781,257.286,201.456,187.146,229.648,194.651
259,0,31.4541,429.317,1128.38,59.0742,159.834,1141.36,-166.735,318.993,1197.13,-151.151,215.026,1195.12,-64.9718,480.272,844.809,-102.547,458.583,650.545,-227.794,460.446,528.761,-376.878,396.891,324.633,-456.985,358.354,336.975,-318.666,357.804,187.111,68.9507,112.435,856.446,87.4164,155.399,667.76,53.908,161.235,454.011,30.0893,215.189,243.121,-40.656,256.91,201.071,177.006,229.324,194.349
260,0,32.4107,427.901,1127.08,59.8305,158.478,1140.46,-165.993,318.442,1195.93,-150.561,214.253,1194.55,-59.6258,480.11,842.806,-94.3363,459.722,648.087,-221.573,461.315,529.167,-375.605,397.006,329.921,-454.956,357.664,345.917,-325.641,357.225,188.883,65.6582,110.313,854.894,83.8524,154.089,666.222,47.4467,160.552,452.707,20.4211,214.795,242.326,-50.651,256.373,200.873,167.119,228.95,194.098
261,0,33.2182,426.504,1125.95,60.3545,157.099,1139.7,-165.405,317.901,1194.91,-150.146,213.506,1194.18,-54.0806,480.013,841.049,-85.6004,460.899,645.875,-214.571,462.28,529.728,-373.389,397.103,335.597,-451.802,356.852,355.14,-331.48,356.834,191.284,61.9233,108.008,853.505,79.7573,152.643,664.83,40.7655,159.713,451.588,10.9657,214.275,241.712,-60.3744,255.712,200.844,157.478,228.546,193.862
262,0,33.869,425.141,1125.02,60.6385,155.704,1139.09,-164.978,317.361,1194.08,-149.911,212.778,1194,-48.4141,479.969,839.583,-76.425,462.077,643.976,-206.854,463.325,530.464,-370.279,397.197,341.62,-447.615,355.945,364.504,-335.991,356.712,194.347,57.8951,105.626,852.335,75.1321,151.092,663.589,33.8609,158.747,450.649,1.70484,213.666,241.258,-69.857,254.968,200.958,148.054,228.128,193.612
263,0,34.3596,423.822,1124.3,60.6789,154.299,1138.62,-164.721,316.813,1193.45,-149.857,212.066,1194,-42.7041,479.964,838.447,-66.8949,463.223,642.449,-198.493,464.428,531.392,-366.332,397.302,347.924,-442.504,354.971,373.853,-338.995,356.927,198.07,53.6973,103.265,851.419,69.9848,149.473,662.499,26.7288,157.688,449.88,-7.39292,213.004,240.943,-79.1419,254.178,201.187,138.805,227.709,193.336
264,0,34.6902,422.559,1123.82,60.4762,152.891,1138.28,-164.635,316.25,1193.02,-149.987,211.368,1194.17,-37.0247,479.986,837.669,-57.0918,464.305,641.346,-189.566,465.564,532.526,-361.607,397.427,354.424,-436.592,353.955,383.017,-340.335,357.532,202.41,49.4141,101.009,850.77,64.332,147.823,661.556,19.3667,156.571,449.27,-16.3663,212.325,240.744,-88.2774,253.378,201.504,129.685,227.294,193.029
265,0,34.8647,421.36,1123.58,60.0347,151.488,1138.06,-164.721,315.67,1192.78,-150.295,210.681,1194.49,-31.4425,480.019,837.266,-47.0929,465.292,640.71,-180.155,466.7,533.871,-356.163,397.578,361.015,-430.001,352.92,391.817,-339.885,358.553,207.283,45.083,98.9268,850.375,58.1985,146.182,660.755,11.7751,155.434,448.808,-25.2561,211.658,240.641,-97.3116,252.601,201.883,120.644,226.888,192.698
266,0,34.8894,420.229,1123.58,59.3624,150.096,1137.95,-164.976,315.07,1192.74,-150.777,210.007,1194.95,-26.0134,480.051,837.25,-36.9696,466.162,640.568,-170.346,467.805,535.43,-350.05,397.757,367.573,-422.85,351.892,400.078,-337.563,359.989,212.566,40.6976,97.0645,850.2,51.6182,144.585,660.087,3.95908,154.311,448.48,-34.1014,211.03,240.618,-106.288,251.871,202.305,111.638,226.49,192.351
267,0,34.7731,419.172,1123.84,58.4703,148.723,1137.93,-165.394,314.453,1192.89,-151.425,209.346,1195.53,-20.7808,480.074,837.618,-26.7878,466.896,640.94,-160.226,468.846,537.196,-343.317,397.965,373.964,-415.247,350.895,407.629,-333.327,361.806,218.106,36.2175,95.4503,850.194,44.6335,143.068,659.543,-4.07118,153.235,448.276,-42.9363,210.458,240.664,-115.244,251.211,202.754,102.627,226.098,192.002
268,0,34.526,418.189,1124.34,57.3724,147.375,1138.01,-165.966,313.823,1193.23,-152.228,208.702,1196.22,-15.7737,480.082,838.362,-16.6082,467.484,641.831,-149.88,469.792,539.158,-336.002,398.198,380.042,-407.284,349.953,414.309,-327.186,363.943,223.73,31.5844,94.0944,850.298,37.2948,141.661,659.115,-12.3003,152.235,448.186,-51.7885,209.958,240.771,-124.208,250.633,203.226,93.5805,225.71,191.664
269,0,34.1592,417.28,1125.08,56.0845,146.061,1138.16,-166.683,313.186,1193.74,-153.175,208.078,1196.99,-11.0073,480.072,839.466,-6.48723,467.919,643.234,-139.394,470.615,541.3,-328.138,398.453,385.661,-399.034,349.093,419.975,-319.189,366.315,229.255,26.7399,92.993,850.454,29.6589,140.39,658.795,-20.7077,151.332,448.201,-60.6779,209.537,240.936,-133.2,250.148,203.72,84.4752,225.324,191.348
270,0,33.6846,416.444,1126.04,54.6244,144.788,1138.36,-167.531,312.551,1194.41,-154.252,207.479,1197.85,-6.48364,480.046,840.91,3.52152,468.204,645.13,-128.849,471.292,543.596,-319.753,398.724,390.677,-390.548,348.339,424.504,-309.426,368.825,234.501,21.6424,92.1316,850.61,21.7871,139.275,658.577,-29.2687,150.544,448.316,-69.6172,209.198,241.161,-142.231,249.757,204.244,75.2974,224.942,191.061
271,0,33.1137,415.677,1127.21,53.0107,143.564,1138.62,-168.497,311.929,1195.25,-155.446,206.912,1198.77,-2.19394,480.009,842.667,13.3661,468.344,647.492,-118.324,471.807,546.017,-310.871,399.009,394.953,-381.858,347.713,427.794,-298.018,371.37,239.302,16.2796,91.4892,850.732,13.7428,138.329,658.455,-37.9549,149.879,448.528,-78.6122,208.938,241.45,-151.309,249.459,204.813,66.0409,224.563,190.807
272,0,32.4579,414.976,1128.57,51.2625,142.396,1138.92,-169.565,311.331,1196.24,-156.741,206.382,1199.74,1.87862,479.966,844.709,22.9947,468.347,650.28,-107.893,472.149,548.525,-301.511,399.302,398.368,-372.97,347.232,429.764,-285.107,373.854,243.517,10.6738,91.0411,850.8,5.58958,137.559,658.428,-46.7358,149.343,448.835,-87.6628,208.752,241.811,-160.432,249.245,205.443,56.7057,224.191,190.583
273,0,31.7282,414.338,1130.08,49.3991,141.293,1139.24,-170.72,310.769,1197.36,-158.123,205.897,1200.77,5.75541,479.923,847.006,32.3549,468.225,653.448,-97.6244,472.314,551.077,-291.693,399.601,400.818,-363.876,346.907,430.357,-270.851,376.2,247.035,4.88156,90.762,850.813,-2.61153,136.963,658.493,-55.5794,148.932,449.237,-96.7643,208.63,242.25,-169.599,249.108,206.156,47.2968,223.831,190.387
274,0,30.935,413.759,1131.73,47.4394,140.262,1139.59,-171.946,310.256,1198.61,-159.576,205.464,1201.85,9.45897,479.888,849.525,41.3929,467.989,656.942,-87.5782,472.304,553.623,-281.433,399.902,402.22,-354.546,346.738,429.536,-255.409,378.35,249.778,-1.01449,90.6283,850.785,-10.8038,136.536,658.651,-64.4537,148.638,449.737,-105.909,208.561,242.778,-178.804,249.032,206.972,37.8222,223.486,190.212
275,0,30.0882,413.236,1133.5,45.4015,139.309,1139.95,-173.225,309.805,1199.97,-161.085,205.091,1202.97,13.0097,479.866,852.236,50.0532,467.65,660.702,-77.8077,472.123,556.111,-270.742,400.202,402.516,-344.938,346.715,427.286,-238.938,380.278,251.705,-6.91718,90.6186,850.741,-18.9367,136.266,658.903,-73.3275,148.449,450.335,-115.086,208.532,243.403,-188.04,249.004,207.912,28.2913,223.161,190.049
276,0,29.1971,412.767,1135.35,43.3029,138.441,1140.32,-174.542,309.426,1201.44,-162.636,204.784,1204.13,16.4231,479.859,855.107,58.279,467.217,664.664,-68.357,471.783,558.48,-259.63,400.496,401.675,-334.994,346.819,423.611,-221.581,381.984,252.81,-12.7287,90.7149,850.711,-26.9663,136.135,659.248,-82.1713,148.349,451.034,-124.285,208.53,244.134,-197.301,249.009,208.994,18.7134,222.859,189.89
277,0,28.2713,412.349,1137.25,41.16,137.663,1140.71,-175.881,309.131,1202.99,-164.214,204.551,1205.33,19.7081,479.867,858.106,66.0126,466.697,668.762,-59.2603,471.296,560.672,-248.099,400.781,399.688,-324.649,347.021,418.534,-203.469,383.492,253.116,-18.3639,90.9023,850.727,-34.8567,136.123,659.689,-90.9579,148.318,451.837,-133.495,208.539,244.977,-206.578,249.029,210.233,9.09668,222.581,189.728
278,0,27.32,411.981,1139.19,38.9879,136.977,1141.09,-177.226,308.928,1204.62,-165.808,204.397,1206.57,22.8654,479.89,861.203,73.1965,466.093,672.926,-50.5416,470.673,562.625,-236.145,401.05,396.576,-313.829,347.284,412.098,-184.709,384.847,252.672,-23.7598,91.1685,850.814,-42.5794,136.21,660.224,-99.6631,148.338,452.743,-142.704,208.546,245.937,-215.865,249.049,211.64,-0.552969,222.326,189.557
279,0,26.3532,411.661,1141.15,36.8012,136.387,1141.48,-178.56,308.825,1206.31,-167.403,204.329,1207.84,25.888,479.923,864.365,79.7749,465.407,677.086,-42.2151,469.929,564.279,-223.755,401.295,392.382,-302.457,347.57,404.364,-165.387,386.102,251.551,-28.8818,91.5028,850.995,-50.1135,136.371,660.852,-108.266,148.389,453.753,-151.903,208.537,247.017,-225.157,249.054,213.221,-10.232,222.092,189.375
280,0,25.381,411.389,1143.09,34.6134,135.892,1141.87,-179.871,308.828,1208.05,-168.988,204.351,1209.14,28.7606,479.959,867.559,85.6947,464.638,681.174,-34.2847,469.074,565.58,-210.903,401.506,387.173,-290.453,347.84,395.415,-145.566,387.311,249.841,-33.7241,91.8958,851.282,-57.4445,136.585,661.57,-116.748,148.452,454.865,-161.082,208.498,248.218,-234.447,249.029,214.979,-19.9395,221.874,189.18
281,0,24.4147,411.162,1145.01,32.4375,135.491,1142.26,-181.143,308.939,1209.81,-170.551,204.468,1210.47,31.4616,479.992,870.75,90.9074,463.782,685.123,-26.7458,468.119,566.477,-197.56,401.673,381.038,-277.738,348.059,385.353,-125.29,388.514,247.641,-38.3063,92.3385,851.678,-64.5638,136.83,662.373,-125.096,148.51,456.076,-170.234,208.418,249.539,-243.731,248.961,216.913,-29.6768,221.667,188.973
282,0,23.4663,410.98,1146.88,30.2857,135.182,1142.65,-182.362,309.162,1211.57,-172.081,204.683,1211.81,33.9635,480.015,873.9,95.3708,462.837,688.867,-19.5864,467.072,566.932,-183.685,401.782,374.088,-264.238,348.199,374.302,-104.582,389.733,245.059,-42.6659,92.8216,852.178,-71.4675,137.088,663.256,-133.298,148.548,457.379,-179.352,208.286,250.977,-253.003,248.838,219.016,-39.4469,221.463,188.755
283,0,22.5489,410.839,1148.69,28.1706,134.958,1143.04,-183.516,309.495,1213.33,-173.568,204.997,1213.17,36.2348,480.019,876.968,99.0504,461.8,692.345,-12.7888,465.94,566.916,-169.236,401.819,366.449,-249.886,348.239,362.407,-83.4526,390.962,242.209,-46.8505,93.336,852.772,-78.1551,137.341,664.209,-141.346,148.557,458.767,-188.432,208.093,252.527,-262.26,248.65,221.28,-49.2537,221.258,188.53
284,0,21.6765,410.736,1150.43,26.1042,134.813,1143.42,-184.592,309.936,1215.06,-175,205.411,1214.52,38.2413,479.999,879.911,101.921,460.67,695.504,-6.33206,464.729,566.412,-154.172,401.768,358.265,-234.629,348.169,349.836,-61.9063,392.163,239.208,-50.9084,93.8722,853.443,-84.6286,137.578,665.224,-149.234,148.529,460.231,-197.467,207.833,254.18,-271.497,248.388,223.695,-59.1019,221.045,188.301
285,0,20.864,410.667,1152.09,24.099,134.739,1143.79,-185.577,310.483,1216.73,-176.368,205.926,1215.85,39.9471,479.953,882.683,103.968,459.447,698.292,-0.194325,463.443,565.419,-138.461,401.613,349.691,-218.428,347.987,336.771,-39.9454,393.268,236.179,-54.8815,94.4209,854.172,-90.8913,137.788,666.287,-156.959,148.458,461.759,-206.456,207.501,255.928,-280.711,248.046,226.248,-68.9955,220.82,188.07
286,0,20.1269,410.626,1153.66,22.1679,134.728,1144.15,-186.461,311.129,1218.34,-177.659,206.538,1217.15,41.3162,479.881,885.235,105.191,458.136,700.67,5.64497,462.085,563.947,-122.085,401.335,340.892,-201.27,347.695,323.414,-17.5796,394.182,233.245,-58.7998,94.9736,854.94,-96.9469,137.966,667.387,-164.52,148.346,463.338,-215.396,207.095,257.761,-289.898,247.621,228.927,-78.938,220.581,187.841
287,0,19.4811,410.607,1155.12,20.324,134.769,1144.49,-187.231,311.869,1219.85,-178.864,207.246,1218.4,42.3134,479.787,887.517,105.6,456.744,702.604,11.2027,460.662,562.021,-105.049,400.917,332.036,-183.169,347.301,309.973,5.1659,394.794,230.532,-62.6793,95.5228,855.724,-102.798,138.11,668.507,-171.917,148.195,464.953,-224.286,206.616,259.669,-299.055,247.11,231.719,-88.9314,220.327,187.616
288,0,18.9424,410.604,1156.46,18.581,134.853,1144.8,-187.878,312.695,1221.24,-179.972,208.046,1219.57,42.9057,479.678,889.479,105.222,455.283,704.07,16.4904,459.177,559.678,-87.389,400.342,323.29,-164.175,346.81,296.663,28.2426,394.987,228.168,-66.5206,96.0625,856.508,-108.448,138.219,669.632,-179.15,148.012,466.59,-233.126,206.068,261.64,-308.181,246.515,234.61,-98.9763,220.059,187.396
289,0,18.5264,410.609,1157.67,16.9528,134.969,1145.07,-188.393,313.6,1222.5,-180.972,208.931,1220.64,43.0642,479.567,891.075,104.1,453.769,705.057,21.5128,457.637,556.965,-69.1794,399.593,314.814,-144.38,346.224,283.694,51.5704,394.652,226.271,-70.3117,96.5882,857.272,-113.894,138.298,670.743,-186.219,147.805,468.23,-241.919,205.456,263.662,-317.274,245.84,237.588,-109.072,219.779,187.182
290,0,18.2478,410.614,1158.75,15.4536,135.109,1145.29,-188.766,314.574,1223.6,-181.853,209.896,1221.59,42.7661,479.467,892.262,102.29,452.219,705.561,26.267,456.048,553.934,-50.536,398.657,306.751,-123.924,345.54,271.263,75.0307,393.703,224.95,-74.0298,97.0973,858.002,-119.133,138.352,671.82,-193.127,147.584,469.858,-250.666,204.79,265.724,-326.336,245.093,240.641,-119.216,219.49,186.976
291,0,18.12,410.613,1159.67,14.0974,135.264,1145.45,-188.992,315.609,1224.52,-182.605,210.932,1222.4,41.9974,479.392,893.004,99.8677,450.654,705.592,30.743,454.417,550.646,-31.6202,397.521,299.227,-102.995,344.749,259.551,98.4617,392.087,224.289,-77.6453,97.5888,858.681,-124.159,138.389,672.841,-199.873,147.362,471.456,-259.372,204.083,267.816,-335.368,244.286,243.758,-129.405,219.197,186.777
292,0,18.1549,410.6,1160.42,12.898,135.429,1145.54,-189.064,316.696,1225.25,-183.218,212.032,1223.04,40.7566,479.356,893.276,96.9211,449.096,705.17,34.9242,452.754,547.16,-12.638,396.181,292.337,-81.8341,343.833,248.708,121.656,389.797,224.34,-81.1247,98.0632,859.296,-128.961,138.419,673.785,-206.454,147.149,473.008,-268.042,203.347,269.929,-344.373,243.432,246.929,-139.633,218.903,186.589
293,0,18.3623,410.57,1161,11.8683,135.598,1145.55,-188.978,317.825,1225.77,-183.684,213.185,1223.49,39.0578,479.368,893.063,93.5539,447.566,704.325,38.7891,451.067,543.538,6.16294,394.635,286.147,-60.7313,342.775,238.853,144.361,386.873,225.112,-84.433,98.5225,859.833,-133.523,138.452,674.626,-212.867,146.956,474.496,-276.68,202.598,272.055,-353.355,242.55,250.146,-149.897,218.612,186.411
294,0,18.7496,410.52,1161.39,11.0202,135.768,1145.45,-188.731,318.987,1226.07,-183.994,214.381,1223.74,36.9351,479.434,892.365,89.8817,446.084,703.097,42.3135,449.365,539.836,24.5012,392.89,280.688,-40.0193,341.554,230.065,166.285,383.405,226.557,-87.536,98.9697,860.275,-137.825,138.497,675.339,-219.105,146.793,475.906,-285.29,201.853,274.187,-362.317,241.657,253.404,-160.19,218.327,186.244
295,0,19.3216,410.45,1161.57,10.3638,135.94,1145.24,-188.325,320.172,1226.14,-184.142,215.608,1223.77,34.4454,479.548,891.198,86.03,444.669,701.534,45.4731,447.659,536.108,42.0714,390.961,275.956,-20.0637,340.155,222.385,187.109,379.52,228.569,-90.4007,99.4088,860.606,-141.84,138.562,675.896,-225.157,146.665,477.224,-293.875,201.127,276.322,-371.261,240.774,256.698,-170.508,218.049,186.088
296,0,20.0801,410.36,1161.56,9.90733,136.116,1144.92,-187.76,321.372,1225.97,-184.124,216.855,1223.57,31.671,479.701,889.592,82.1306,443.332,699.691,48.2468,445.959,532.401,58.558,388.868,271.914,-1.24848,338.569,215.813,206.496,375.379,230.981,-92.9958,99.8444,860.803,-145.537,138.654,676.272,-231.008,146.577,478.439,-302.433,200.433,278.457,-380.184,239.922,260.03,-180.848,217.779,185.941
297,0,21.024,410.254,1161.32,9.65647,136.298,1144.46,-187.041,322.579,1225.55,-183.937,218.11,1223.11,28.7208,479.873,887.597,78.3181,442.085,697.627,50.6194,444.277,528.757,73.6504,386.641,268.497,16.0413,336.8,210.313,224.112,371.154,233.574,-95.2913,100.282,860.845,-148.877,138.776,676.438,-236.635,146.526,479.54,-310.956,199.783,280.594,-389.08,239.119,263.405,-191.207,217.516,185.798
298,0,22.1488,410.138,1160.88,9.6141,136.495,1143.86,-186.175,323.783,1224.9,-183.58,219.361,1222.41,25.7281,480.034,885.278,74.7248,440.93,695.404,52.5842,442.626,525.213,87.0594,384.315,265.618,31.4401,334.865,205.818,239.647,367.021,236.087,-97.2575,100.725,860.705,-151.816,138.928,676.369,-242.013,146.509,480.522,-319.431,199.184,282.736,-397.933,238.379,266.833,-201.587,217.261,185.654
299,0,23.4471,410.02,1160.23,9.77999,136.712,1143.12,-185.171,324.977,1224.01,-183.057,220.597,1221.45,22.8473,480.154,882.713,71.4764,439.869,693.084,54.1451,441.018,521.798,98.5333,381.931,263.176,44.6222,332.796,202.236,252.833,363.134,238.244,-98.8644,101.18,860.354,-154.305,139.105,676.039,-247.106,146.514,481.381,-327.832,198.638,284.89,-406.716,237.714,270.332,-211.991,217.013,185.499
300,0,24.9082,409.911,1159.38,10.1506,136.96,1142.23,-184.039,326.154,1222.9,-182.372,221.806,1220.25,20.2466,480.197,879.991,68.6865,438.896,690.728,55.318,439.471,518.539,107.873,379.531,261.066,55.3227,330.637,199.462,263.464,359.621,239.776,-100.08,101.649,859.765,-156.29,139.297,675.427,-251.875,146.528,482.116,-336.127,198.141,287.067,-415.388,237.127,273.926,-222.424,216.771,185.322
301,0,26.5187,409.821,1158.35,10.7188,137.247,1141.2,-182.795,327.307,1221.57,-181.534,222.98,1218.81,18.099,480.131,877.211,66.4522,438.003,688.391,56.1304,437.999,515.457,114.943,377.16,259.189,63.3544,328.441,197.379,271.414,356.568,240.452,-100.872,102.132,858.911,-157.712,139.489,674.515,-256.271,146.533,482.731,-344.266,197.685,289.279,-423.893,236.616,277.648,-232.896,216.539,185.112
302,0,28.2625,409.763,1157.15,11.4742,137.584,1140.03,-181.452,328.431,1220.05,-180.552,224.111,1217.13,16.5701,479.931,874.471,64.849,437.18,686.122,56.6205,436.62,512.571,119.68,374.858,257.459,68.6211,326.269,195.874,276.647,354.019,240.107,-101.202,102.628,857.771,-158.512,139.661,673.29,-260.24,146.505,483.231,-352.191,197.255,291.544,-432.159,236.17,281.538,-243.416,216.321,184.858
